subject,block,blockType,trialCount,acc,RT,distractorType,taskSequence,sequenceType,sequenceKind,sequencePosition,switchProp,distractorProp
sub1,1,C,2,1,1375,n,r,f,NA,NA,25%,25%
sub1,1,C,3,1,1657,n,r,f,NA,NA,25%,25%
sub1,1,C,4,1,1254,n,r,f,NA,NA,25%,25%
sub1,1,C,5,1,929,n,r,f,NA,NA,25%,25%
sub1,1,C,6,1,1045,n,s,s,4,1,25%,25%
sub1,1,C,7,1,1288,n,s,s,4,2,25%,25%
sub1,1,C,8,1,1882,d,r,s,4,3,25%,25%
sub1,1,C,9,0,1822,d,r,s,4,4,25%,25%
sub1,1,C,10,1,1691,d,s,f,NA,NA,25%,25%
sub1,1,C,11,1,1493,n,r,f,NA,NA,25%,25%
sub1,1,C,12,1,1142,n,r,f,NA,NA,25%,25%
sub1,1,C,13,1,911,n,r,f,NA,NA,25%,25%
sub1,1,C,14,1,977,n,r,f,NA,NA,25%,25%
sub1,1,C,15,1,1453,d,s,s,1,1,25%,25%
sub1,1,C,16,1,1256,n,r,s,1,2,25%,25%
sub1,1,C,17,1,1437,d,s,s,1,3,25%,25%
sub1,1,C,18,1,953,n,r,s,1,4,25%,25%
sub1,1,C,19,1,910,n,r,f,NA,NA,25%,25%
sub1,1,C,20,1,973,n,r,f,NA,NA,25%,25%
sub1,1,C,21,1,891,n,r,f,NA,NA,25%,25%
sub1,1,C,22,1,936,n,r,f,NA,NA,25%,25%
sub1,1,C,23,1,891,n,r,f,NA,NA,25%,25%
sub1,1,C,24,1,840,n,r,f,NA,NA,25%,25%
sub1,1,C,25,1,895,d,r,s,3,1,25%,25%
sub1,1,C,26,1,1255,n,s,s,3,2,25%,25%
sub1,1,C,27,1,1535,d,r,s,3,3,25%,25%
sub1,1,C,28,1,1343,n,s,s,3,4,25%,25%
sub1,1,C,29,0,2045,d,s,f,NA,NA,25%,25%
sub1,1,C,30,1,1152,n,r,f,NA,NA,25%,25%
sub1,1,C,31,1,831,n,r,f,NA,NA,25%,25%
sub1,1,C,32,1,1034,n,r,f,NA,NA,25%,25%
sub1,1,C,33,1,992,n,r,f,NA,NA,25%,25%
sub1,1,C,34,0,1195,n,r,f,NA,NA,25%,25%
sub1,1,C,35,1,953,n,r,s,2,1,25%,25%
sub1,1,C,36,1,888,n,r,s,2,2,25%,25%
sub1,1,C,37,1,1242,d,s,s,2,3,25%,25%
sub1,1,C,38,1,1964,d,s,s,2,4,25%,25%
sub1,1,C,39,1,953,n,r,f,NA,NA,25%,25%
sub1,1,C,40,1,876,n,r,f,NA,NA,25%,25%
sub1,1,C,41,1,1012,n,r,f,NA,NA,25%,25%
sub1,1,C,42,0,1291,n,r,f,NA,NA,25%,25%
sub1,1,C,43,1,972,n,r,f,NA,NA,25%,25%
sub1,1,C,44,0,1996,n,r,f,NA,NA,25%,25%
sub1,1,C,45,1,1024,n,s,s,4,1,25%,25%
sub1,1,C,46,1,1054,n,s,s,4,2,25%,25%
sub1,1,C,47,1,1114,d,r,s,4,3,25%,25%
sub1,1,C,48,1,1622,d,r,s,4,4,25%,25%
sub1,1,C,49,1,1545,d,s,f,NA,NA,25%,25%
sub1,1,C,50,1,956,n,r,f,NA,NA,25%,25%
sub1,1,C,51,1,736,n,r,f,NA,NA,25%,25%
sub1,1,C,52,1,656,n,r,f,NA,NA,25%,25%
sub1,1,C,53,1,787,n,r,f,NA,NA,25%,25%
sub1,1,C,54,1,1109,d,s,s,1,1,25%,25%
sub1,1,C,55,1,741,n,r,s,1,2,25%,25%
sub1,1,C,56,0,1964,d,s,s,1,3,25%,25%
sub1,1,C,57,1,781,n,r,s,1,4,25%,25%
sub1,1,C,58,1,870,n,r,f,NA,NA,25%,25%
sub1,1,C,59,1,1159,n,r,f,NA,NA,25%,25%
sub1,1,C,60,1,959,n,r,f,NA,NA,25%,25%
sub1,1,C,61,1,767,n,r,f,NA,NA,25%,25%
sub1,1,C,62,1,984,n,r,f,NA,NA,25%,25%
sub1,1,C,63,1,722,n,r,f,NA,NA,25%,25%
sub1,1,C,64,1,1130,n,s,s,4,1,25%,25%
sub1,1,C,65,1,813,n,s,s,4,2,25%,25%
sub1,1,C,66,1,984,d,r,s,4,3,25%,25%
sub1,1,C,67,1,939,d,r,s,4,4,25%,25%
sub1,1,C,68,1,784,n,r,f,NA,NA,25%,25%
sub1,1,C,69,1,755,n,r,f,NA,NA,25%,25%
sub1,1,C,70,1,749,n,r,f,NA,NA,25%,25%
sub1,1,C,71,1,685,n,r,f,NA,NA,25%,25%
sub1,1,C,72,1,669,n,r,f,NA,NA,25%,25%
sub1,1,C,73,1,732,n,r,f,NA,NA,25%,25%
sub1,1,C,74,1,813,d,r,s,3,1,25%,25%
sub1,1,C,75,1,1197,n,s,s,3,2,25%,25%
sub1,1,C,76,1,1015,d,r,s,3,3,25%,25%
sub1,1,C,77,0,1521,n,s,s,3,4,25%,25%
sub1,1,C,78,1,975,n,r,f,NA,NA,25%,25%
sub1,1,C,79,1,720,n,r,f,NA,NA,25%,25%
sub1,1,C,80,1,816,n,r,f,NA,NA,25%,25%
sub1,1,C,81,1,735,n,r,f,NA,NA,25%,25%
sub1,1,C,82,1,696,n,r,f,NA,NA,25%,25%
sub1,1,C,83,1,867,n,r,f,NA,NA,25%,25%
sub1,1,C,84,1,1625,d,s,s,1,1,25%,25%
sub1,1,C,85,1,760,n,r,s,1,2,25%,25%
sub1,1,C,86,1,906,d,s,s,1,3,25%,25%
sub1,1,C,87,1,659,n,r,s,1,4,25%,25%
sub1,1,C,88,1,1189,d,s,f,NA,NA,25%,25%
sub1,1,C,89,1,783,n,r,f,NA,NA,25%,25%
sub1,1,C,90,1,914,n,r,f,NA,NA,25%,25%
sub1,1,C,91,1,1622,n,r,f,NA,NA,25%,25%
sub1,1,C,92,1,810,n,r,f,NA,NA,25%,25%
sub1,1,C,93,1,637,n,r,f,NA,NA,25%,25%
sub1,1,C,94,1,1222,d,s,s,1,1,25%,25%
sub1,1,C,95,1,865,n,r,s,1,2,25%,25%
sub1,1,C,96,1,924,d,s,s,1,3,25%,25%
sub1,1,C,97,1,791,n,r,s,1,4,25%,25%
sub1,1,C,98,0,1232,d,s,f,NA,NA,25%,25%
sub1,1,C,99,1,1123,n,r,f,NA,NA,25%,25%
sub1,1,C,100,0,1461,n,r,f,NA,NA,25%,25%
sub1,1,C,101,1,852,n,r,f,NA,NA,25%,25%
sub1,1,C,102,1,816,n,r,f,NA,NA,25%,25%
sub1,1,C,103,1,773,n,r,f,NA,NA,25%,25%
sub1,1,C,104,1,1007,n,s,s,4,1,25%,25%
sub1,1,C,105,1,918,n,s,s,4,2,25%,25%
sub1,1,C,106,1,1772,d,r,s,4,3,25%,25%
sub1,1,C,107,1,896,d,r,s,4,4,25%,25%
sub1,1,C,108,1,1174,d,s,f,NA,NA,25%,25%
sub1,1,C,109,1,917,n,r,f,NA,NA,25%,25%
sub1,1,C,110,1,935,n,r,f,NA,NA,25%,25%
sub1,1,C,111,1,1011,n,r,f,NA,NA,25%,25%
sub1,1,C,112,1,895,n,r,f,NA,NA,25%,25%
sub1,1,C,113,1,1314,n,r,f,NA,NA,25%,25%
sub1,1,C,114,1,801,n,r,s,2,1,25%,25%
sub1,1,C,115,1,708,n,r,s,2,2,25%,25%
sub1,1,C,116,1,1132,d,s,s,2,3,25%,25%
sub1,1,C,117,1,1591,d,s,s,2,4,25%,25%
sub1,1,C,118,1,687,n,r,f,NA,NA,25%,25%
sub1,1,C,119,1,843,n,r,f,NA,NA,25%,25%
sub1,1,C,120,1,1155,n,r,f,NA,NA,25%,25%
sub1,1,C,121,1,1682,n,r,f,NA,NA,25%,25%
sub1,1,C,122,1,881,n,r,f,NA,NA,25%,25%
sub1,1,C,123,1,859,n,r,s,2,1,25%,25%
sub1,1,C,124,1,1208,n,r,s,2,2,25%,25%
sub1,1,C,125,1,1205,d,s,s,2,3,25%,25%
sub1,1,C,126,1,1137,d,s,s,2,4,25%,25%
sub1,1,C,127,1,939,n,r,f,NA,NA,25%,25%
sub1,1,C,128,1,722,n,r,f,NA,NA,25%,25%
sub1,1,C,129,1,676,n,r,f,NA,NA,25%,25%
sub1,1,C,130,1,682,n,r,f,NA,NA,25%,25%
sub1,1,C,131,1,836,n,r,f,NA,NA,25%,25%
sub1,1,C,132,1,760,n,r,s,2,1,25%,25%
sub1,1,C,133,1,787,n,r,s,2,2,25%,25%
sub1,1,C,134,0,1528,d,s,s,2,3,25%,25%
sub1,1,C,135,1,1608,d,s,s,2,4,25%,25%
sub1,1,C,136,1,1284,d,s,f,NA,NA,25%,25%
sub1,1,C,137,1,767,n,r,f,NA,NA,25%,25%
sub1,1,C,138,1,657,n,r,f,NA,NA,25%,25%
sub1,1,C,139,1,717,n,r,f,NA,NA,25%,25%
sub1,1,C,140,1,852,n,r,f,NA,NA,25%,25%
sub1,1,C,141,1,827,n,r,f,NA,NA,25%,25%
sub1,1,C,142,1,609,d,r,s,3,1,25%,25%
sub1,1,C,143,0,2029,n,s,s,3,2,25%,25%
sub1,1,C,144,1,1656,d,r,s,3,3,25%,25%
sub1,1,C,145,1,882,n,s,s,3,4,25%,25%
sub1,1,C,146,1,702,n,r,f,NA,NA,25%,25%
sub1,1,C,147,1,704,n,r,f,NA,NA,25%,25%
sub1,1,C,148,1,640,n,r,f,NA,NA,25%,25%
sub1,1,C,149,1,742,n,r,f,NA,NA,25%,25%
sub1,1,C,150,1,701,n,r,f,NA,NA,25%,25%
sub1,1,C,151,1,690,n,r,f,NA,NA,25%,25%
sub1,1,C,152,1,875,d,r,s,3,1,25%,25%
sub1,1,C,153,1,978,n,s,s,3,2,25%,25%
sub1,1,C,154,1,1172,d,r,s,3,3,25%,25%
sub1,1,C,155,1,1100,n,s,s,3,4,25%,25%
sub1,1,C,156,1,962,d,s,f,NA,NA,25%,25%
sub1,1,C,157,1,902,n,r,f,NA,NA,25%,25%
sub1,1,C,158,1,699,n,r,f,NA,NA,25%,25%
sub1,1,C,159,1,919,n,r,f,NA,NA,25%,25%
sub1,1,C,160,1,705,n,r,f,NA,NA,25%,25%
sub1,2,D,162,1,1166,n,s,f,NA,NA,75%,25%
sub1,2,D,163,0,1401,n,s,f,NA,NA,75%,25%
sub1,2,D,164,1,1248,n,s,f,NA,NA,75%,25%
sub1,2,D,165,0,1592,n,s,f,NA,NA,75%,25%
sub1,2,D,166,1,1139,n,s,s,4,1,75%,25%
sub1,2,D,167,1,776,n,s,s,4,2,75%,25%
sub1,2,D,168,1,1059,d,r,s,4,3,75%,25%
sub1,2,D,169,1,982,d,r,s,4,4,75%,25%
sub1,2,D,170,0,1504,n,s,f,NA,NA,75%,25%
sub1,2,D,171,1,1197,n,s,f,NA,NA,75%,25%
sub1,2,D,172,1,865,n,s,f,NA,NA,75%,25%
sub1,2,D,173,1,813,n,s,f,NA,NA,75%,25%
sub1,2,D,174,1,968,n,s,f,NA,NA,75%,25%
sub1,2,D,175,1,800,n,s,f,NA,NA,75%,25%
sub1,2,D,176,1,1540,d,s,s,1,1,75%,25%
sub1,2,D,177,1,855,n,r,s,1,2,75%,25%
sub1,2,D,178,1,1099,d,s,s,1,3,75%,25%
sub1,2,D,179,1,981,n,r,s,1,4,75%,25%
sub1,2,D,180,0,1107,d,r,f,NA,NA,75%,25%
sub1,2,D,181,1,1100,n,s,f,NA,NA,75%,25%
sub1,2,D,182,1,912,n,s,f,NA,NA,75%,25%
sub1,2,D,183,1,843,n,s,f,NA,NA,75%,25%
sub1,2,D,184,1,1046,n,s,f,NA,NA,75%,25%
sub1,2,D,185,1,843,n,s,f,NA,NA,75%,25%
sub1,2,D,186,1,815,d,r,s,3,1,75%,25%
sub1,2,D,187,1,799,n,s,s,3,2,75%,25%
sub1,2,D,188,1,870,d,r,s,3,3,75%,25%
sub1,2,D,189,1,795,n,s,s,3,4,75%,25%
sub1,2,D,190,1,894,d,r,f,NA,NA,75%,25%
sub1,2,D,191,1,862,n,s,f,NA,NA,75%,25%
sub1,2,D,192,1,971,n,s,f,NA,NA,75%,25%
sub1,2,D,193,1,1426,n,s,f,NA,NA,75%,25%
sub1,2,D,194,1,874,n,s,f,NA,NA,75%,25%
sub1,2,D,195,1,1120,n,s,f,NA,NA,75%,25%
sub1,2,D,196,1,1647,n,r,s,2,1,75%,25%
sub1,2,D,197,1,1172,n,r,s,2,2,75%,25%
sub1,2,D,198,1,1337,d,s,s,2,3,75%,25%
sub1,2,D,199,1,988,d,s,s,2,4,75%,25%
sub1,2,D,200,1,1769,n,s,f,NA,NA,75%,25%
sub1,2,D,201,1,847,n,s,f,NA,NA,75%,25%
sub1,2,D,202,1,880,n,s,f,NA,NA,75%,25%
sub1,2,D,203,1,1263,n,s,f,NA,NA,75%,25%
sub1,2,D,204,1,860,n,s,f,NA,NA,75%,25%
sub1,2,D,205,1,990,n,s,f,NA,NA,75%,25%
sub1,2,D,206,1,899,n,s,s,4,1,75%,25%
sub1,2,D,207,1,981,n,s,s,4,2,75%,25%
sub1,2,D,208,1,968,d,r,s,4,3,75%,25%
sub1,2,D,209,1,1732,d,r,s,4,4,75%,25%
sub1,2,D,210,1,1074,d,r,f,NA,NA,75%,25%
sub1,2,D,211,1,1236,n,s,f,NA,NA,75%,25%
sub1,2,D,212,1,984,n,s,f,NA,NA,75%,25%
sub1,2,D,213,1,1147,n,s,f,NA,NA,75%,25%
sub1,2,D,214,1,820,n,s,f,NA,NA,75%,25%
sub1,2,D,215,1,912,n,s,f,NA,NA,75%,25%
sub1,2,D,216,1,1584,d,s,s,1,1,75%,25%
sub1,2,D,217,1,1377,n,r,s,1,2,75%,25%
sub1,2,D,218,1,946,d,s,s,1,3,75%,25%
sub1,2,D,219,1,868,n,r,s,1,4,75%,25%
sub1,2,D,220,1,941,d,r,f,NA,NA,75%,25%
sub1,2,D,221,1,1251,n,s,f,NA,NA,75%,25%
sub1,2,D,222,1,812,n,s,f,NA,NA,75%,25%
sub1,2,D,223,1,1109,n,s,f,NA,NA,75%,25%
sub1,2,D,224,1,753,n,s,f,NA,NA,75%,25%
sub1,2,D,225,1,1217,n,s,f,NA,NA,75%,25%
sub1,2,D,226,1,776,n,s,s,4,1,75%,25%
sub1,2,D,227,1,720,n,s,s,4,2,75%,25%
sub1,2,D,228,1,922,d,r,s,4,3,75%,25%
sub1,2,D,229,1,1557,d,r,s,4,4,75%,25%
sub1,2,D,230,1,1038,n,s,f,NA,NA,75%,25%
sub1,2,D,231,1,1104,n,s,f,NA,NA,75%,25%
sub1,2,D,232,1,853,n,s,f,NA,NA,75%,25%
sub1,2,D,233,1,822,n,s,f,NA,NA,75%,25%
sub1,2,D,234,1,1111,n,s,f,NA,NA,75%,25%
sub1,2,D,235,1,955,d,r,s,3,1,75%,25%
sub1,2,D,236,1,877,n,s,s,3,2,75%,25%
sub1,2,D,237,1,910,d,r,s,3,3,75%,25%
sub1,2,D,238,1,753,n,s,s,3,4,75%,25%
sub1,2,D,239,1,1419,n,s,f,NA,NA,75%,25%
sub1,2,D,240,1,845,n,s,f,NA,NA,75%,25%
sub1,2,D,241,1,879,n,s,f,NA,NA,75%,25%
sub1,2,D,242,1,768,n,s,f,NA,NA,75%,25%
sub1,2,D,243,1,1402,n,s,f,NA,NA,75%,25%
sub1,2,D,244,1,845,d,s,s,1,1,75%,25%
sub1,2,D,245,1,799,n,r,s,1,2,75%,25%
sub1,2,D,246,1,866,d,s,s,1,3,75%,25%
sub1,2,D,247,1,972,n,r,s,1,4,75%,25%
sub1,2,D,248,1,975,d,r,f,NA,NA,75%,25%
sub1,2,D,249,1,871,n,s,f,NA,NA,75%,25%
sub1,2,D,250,1,782,n,s,f,NA,NA,75%,25%
sub1,2,D,251,1,715,n,s,f,NA,NA,75%,25%
sub1,2,D,252,1,932,d,s,s,1,1,75%,25%
sub1,2,D,253,1,658,n,r,s,1,2,75%,25%
sub1,2,D,254,1,990,d,s,s,1,3,75%,25%
sub1,2,D,255,1,836,n,r,s,1,4,75%,25%
sub1,2,D,256,1,1263,n,s,f,NA,NA,75%,25%
sub1,2,D,257,1,718,n,s,f,NA,NA,75%,25%
sub1,2,D,258,1,1093,n,s,f,NA,NA,75%,25%
sub1,2,D,259,1,807,n,s,f,NA,NA,75%,25%
sub1,2,D,260,1,683,n,s,f,NA,NA,75%,25%
sub1,2,D,261,1,825,n,s,f,NA,NA,75%,25%
sub1,2,D,262,1,1026,n,s,s,4,1,75%,25%
sub1,2,D,263,1,899,n,s,s,4,2,75%,25%
sub1,2,D,264,1,859,d,r,s,4,3,75%,25%
sub1,2,D,265,1,1031,d,r,s,4,4,75%,25%
sub1,2,D,266,1,790,n,s,f,NA,NA,75%,25%
sub1,2,D,267,1,800,n,s,f,NA,NA,75%,25%
sub1,2,D,268,1,914,n,s,f,NA,NA,75%,25%
sub1,2,D,269,1,702,n,s,f,NA,NA,75%,25%
sub1,2,D,270,1,1021,n,s,f,NA,NA,75%,25%
sub1,2,D,271,1,1358,n,s,f,NA,NA,75%,25%
sub1,2,D,272,1,790,n,r,s,2,1,75%,25%
sub1,2,D,273,1,809,n,r,s,2,2,75%,25%
sub1,2,D,274,1,1220,d,s,s,2,3,75%,25%
sub1,2,D,275,1,977,d,s,s,2,4,75%,25%
sub1,2,D,276,1,773,n,s,f,NA,NA,75%,25%
sub1,2,D,277,1,734,n,s,f,NA,NA,75%,25%
sub1,2,D,278,1,704,n,s,f,NA,NA,75%,25%
sub1,2,D,279,1,761,n,s,f,NA,NA,75%,25%
sub1,2,D,280,1,750,n,s,f,NA,NA,75%,25%
sub1,2,D,281,1,706,n,s,f,NA,NA,75%,25%
sub1,2,D,282,1,753,n,r,s,2,1,75%,25%
sub1,2,D,283,1,831,n,r,s,2,2,75%,25%
sub1,2,D,284,1,860,d,s,s,2,3,75%,25%
sub1,2,D,285,1,1454,d,s,s,2,4,75%,25%
sub1,2,D,286,1,833,n,s,f,NA,NA,75%,25%
sub1,2,D,287,1,708,n,s,f,NA,NA,75%,25%
sub1,2,D,288,1,787,n,s,f,NA,NA,75%,25%
sub1,2,D,289,1,754,n,s,f,NA,NA,75%,25%
sub1,2,D,290,1,754,n,s,f,NA,NA,75%,25%
sub1,2,D,291,1,936,n,s,f,NA,NA,75%,25%
sub1,2,D,292,1,829,n,r,s,2,1,75%,25%
sub1,2,D,293,1,626,n,r,s,2,2,75%,25%
sub1,2,D,294,1,1296,d,s,s,2,3,75%,25%
sub1,2,D,295,0,1803,d,s,s,2,4,75%,25%
sub1,2,D,296,1,985,d,r,f,NA,NA,75%,25%
sub1,2,D,297,1,769,n,s,f,NA,NA,75%,25%
sub1,2,D,298,1,1351,n,s,f,NA,NA,75%,25%
sub1,2,D,299,1,1310,n,s,f,NA,NA,75%,25%
sub1,2,D,300,1,1244,n,s,f,NA,NA,75%,25%
sub1,2,D,301,1,842,n,s,f,NA,NA,75%,25%
sub1,2,D,302,1,764,d,r,s,3,1,75%,25%
sub1,2,D,303,1,752,n,s,s,3,2,75%,25%
sub1,2,D,304,1,895,d,r,s,3,3,75%,25%
sub1,2,D,305,1,810,n,s,s,3,4,75%,25%
sub1,2,D,306,1,1326,d,r,f,NA,NA,75%,25%
sub1,2,D,307,1,1285,n,s,f,NA,NA,75%,25%
sub1,2,D,308,1,819,n,s,f,NA,NA,75%,25%
sub1,2,D,309,1,927,n,s,f,NA,NA,75%,25%
sub1,2,D,310,1,726,n,s,f,NA,NA,75%,25%
sub1,2,D,311,1,858,n,s,f,NA,NA,75%,25%
sub1,2,D,312,1,1298,d,r,s,3,1,75%,25%
sub1,2,D,313,1,717,n,s,s,3,2,75%,25%
sub1,2,D,314,1,736,d,r,s,3,3,75%,25%
sub1,2,D,315,1,1301,n,s,s,3,4,75%,25%
sub1,2,D,316,1,925,d,r,f,NA,NA,75%,25%
sub1,2,D,317,1,774,n,s,f,NA,NA,75%,25%
sub1,2,D,318,1,872,n,s,f,NA,NA,75%,25%
sub1,2,D,319,1,1380,n,s,f,NA,NA,75%,25%
sub1,2,D,320,1,911,n,s,f,NA,NA,75%,25%
sub1,3,B,322,1,863,d,s,f,NA,NA,75%,75%
sub1,3,B,323,1,831,d,s,f,NA,NA,75%,75%
sub1,3,B,324,1,969,d,s,f,NA,NA,75%,75%
sub1,3,B,325,1,811,n,s,s,4,1,75%,75%
sub1,3,B,326,1,1050,n,s,s,4,2,75%,75%
sub1,3,B,327,1,1131,d,r,s,4,3,75%,75%
sub1,3,B,328,1,834,d,r,s,4,4,75%,75%
sub1,3,B,329,1,1179,d,s,f,NA,NA,75%,75%
sub1,3,B,330,1,1202,d,s,f,NA,NA,75%,75%
sub1,3,B,331,0,1671,d,s,f,NA,NA,75%,75%
sub1,3,B,332,1,877,d,s,f,NA,NA,75%,75%
sub1,3,B,333,1,1071,d,s,f,NA,NA,75%,75%
sub1,3,B,334,1,1752,d,s,f,NA,NA,75%,75%
sub1,3,B,335,1,1413,d,s,s,1,1,75%,75%
sub1,3,B,336,1,868,n,r,s,1,2,75%,75%
sub1,3,B,337,1,1014,d,s,s,1,3,75%,75%
sub1,3,B,338,1,687,n,r,s,1,4,75%,75%
sub1,3,B,339,1,821,n,r,f,NA,NA,75%,75%
sub1,3,B,340,0,823,d,s,f,NA,NA,75%,75%
sub1,3,B,341,1,1459,d,s,f,NA,NA,75%,75%
sub1,3,B,342,1,1169,d,s,f,NA,NA,75%,75%
sub1,3,B,343,1,1203,d,s,f,NA,NA,75%,75%
sub1,3,B,344,1,961,d,s,f,NA,NA,75%,75%
sub1,3,B,345,1,742,d,r,s,3,1,75%,75%
sub1,3,B,346,1,788,n,s,s,3,2,75%,75%
sub1,3,B,347,1,889,d,r,s,3,3,75%,75%
sub1,3,B,348,1,830,n,s,s,3,4,75%,75%
sub1,3,B,349,1,1415,d,s,f,NA,NA,75%,75%
sub1,3,B,350,1,1174,d,s,f,NA,NA,75%,75%
sub1,3,B,351,1,1209,d,s,f,NA,NA,75%,75%
sub1,3,B,352,1,897,d,s,f,NA,NA,75%,75%
sub1,3,B,353,1,917,d,s,f,NA,NA,75%,75%
sub1,3,B,354,1,1000,d,s,f,NA,NA,75%,75%
sub1,3,B,355,1,739,n,r,s,2,1,75%,75%
sub1,3,B,356,1,679,n,r,s,2,2,75%,75%
sub1,3,B,357,1,939,d,s,s,2,3,75%,75%
sub1,3,B,358,1,1362,d,s,s,2,4,75%,75%
sub1,3,B,359,1,756,n,r,f,NA,NA,75%,75%
sub1,3,B,360,1,1011,d,s,f,NA,NA,75%,75%
sub1,3,B,361,0,1387,d,s,f,NA,NA,75%,75%
sub1,3,B,362,1,890,d,s,f,NA,NA,75%,75%
sub1,3,B,363,1,1064,d,s,f,NA,NA,75%,75%
sub1,3,B,364,1,959,d,s,f,NA,NA,75%,75%
sub1,3,B,365,1,889,n,s,s,4,1,75%,75%
sub1,3,B,366,1,857,n,s,s,4,2,75%,75%
sub1,3,B,367,1,985,d,r,s,4,3,75%,75%
sub1,3,B,368,1,970,d,r,s,4,4,75%,75%
sub1,3,B,369,1,720,n,r,f,NA,NA,75%,75%
sub1,3,B,370,1,980,d,s,f,NA,NA,75%,75%
sub1,3,B,371,1,1361,d,s,f,NA,NA,75%,75%
sub1,3,B,372,1,1132,d,s,f,NA,NA,75%,75%
sub1,3,B,373,1,1846,d,s,f,NA,NA,75%,75%
sub1,3,B,374,1,867,d,s,f,NA,NA,75%,75%
sub1,3,B,375,1,683,d,s,s,1,1,75%,75%
sub1,3,B,376,1,1355,n,r,s,1,2,75%,75%
sub1,3,B,377,1,1068,d,s,s,1,3,75%,75%
sub1,3,B,378,1,692,n,r,s,1,4,75%,75%
sub1,3,B,379,1,1038,d,s,f,NA,NA,75%,75%
sub1,3,B,380,1,868,d,s,f,NA,NA,75%,75%
sub1,3,B,381,1,1370,d,s,f,NA,NA,75%,75%
sub1,3,B,382,1,1013,d,s,f,NA,NA,75%,75%
sub1,3,B,383,1,747,d,s,f,NA,NA,75%,75%
sub1,3,B,384,1,706,n,s,s,4,1,75%,75%
sub1,3,B,385,1,959,n,s,s,4,2,75%,75%
sub1,3,B,386,1,867,d,r,s,4,3,75%,75%
sub1,3,B,387,1,856,d,r,s,4,4,75%,75%
sub1,3,B,388,1,810,d,s,f,NA,NA,75%,75%
sub1,3,B,389,1,823,d,s,f,NA,NA,75%,75%
sub1,3,B,390,0,1218,d,s,f,NA,NA,75%,75%
sub1,3,B,391,1,1205,d,s,f,NA,NA,75%,75%
sub1,3,B,392,1,806,d,s,f,NA,NA,75%,75%
sub1,3,B,393,1,995,d,s,f,NA,NA,75%,75%
sub1,3,B,394,1,931,d,r,s,3,1,75%,75%
sub1,3,B,395,1,843,n,s,s,3,2,75%,75%
sub1,3,B,396,1,932,d,r,s,3,3,75%,75%
sub1,3,B,397,1,1262,n,s,s,3,4,75%,75%
sub1,3,B,398,1,1011,d,s,f,NA,NA,75%,75%
sub1,3,B,399,1,1092,d,s,f,NA,NA,75%,75%
sub1,3,B,400,1,886,d,s,f,NA,NA,75%,75%
sub1,3,B,401,1,807,d,s,f,NA,NA,75%,75%
sub1,3,B,402,1,1327,d,s,f,NA,NA,75%,75%
sub1,3,B,403,1,893,d,s,f,NA,NA,75%,75%
sub1,3,B,404,1,912,d,s,s,1,1,75%,75%
sub1,3,B,405,1,894,n,r,s,1,2,75%,75%
sub1,3,B,406,1,1029,d,s,s,1,3,75%,75%
sub1,3,B,407,1,950,n,r,s,1,4,75%,75%
sub1,3,B,408,1,901,n,r,f,NA,NA,75%,75%
sub1,3,B,409,1,1268,d,s,f,NA,NA,75%,75%
sub1,3,B,410,1,911,d,s,f,NA,NA,75%,75%
sub1,3,B,411,1,824,d,s,f,NA,NA,75%,75%
sub1,3,B,412,1,919,d,s,f,NA,NA,75%,75%
sub1,3,B,413,1,1033,d,s,f,NA,NA,75%,75%
sub1,3,B,414,1,860,d,s,s,1,1,75%,75%
sub1,3,B,415,1,790,n,r,s,1,2,75%,75%
sub1,3,B,416,1,1218,d,s,s,1,3,75%,75%
sub1,3,B,417,1,677,n,r,s,1,4,75%,75%
sub1,3,B,418,1,890,d,s,f,NA,NA,75%,75%
sub1,3,B,419,1,753,d,s,f,NA,NA,75%,75%
sub1,3,B,420,1,1385,d,s,f,NA,NA,75%,75%
sub1,3,B,421,1,882,d,s,f,NA,NA,75%,75%
sub1,3,B,422,1,1093,d,s,f,NA,NA,75%,75%
sub1,3,B,423,1,1131,d,s,f,NA,NA,75%,75%
sub1,3,B,424,1,915,n,s,s,4,1,75%,75%
sub1,3,B,425,1,705,n,s,s,4,2,75%,75%
sub1,3,B,426,1,939,d,r,s,4,3,75%,75%
sub1,3,B,427,1,959,d,r,s,4,4,75%,75%
sub1,3,B,428,1,979,d,s,f,NA,NA,75%,75%
sub1,3,B,429,1,825,d,s,f,NA,NA,75%,75%
sub1,3,B,430,1,1478,d,s,f,NA,NA,75%,75%
sub1,3,B,431,1,1218,d,s,f,NA,NA,75%,75%
sub1,3,B,432,1,760,d,s,f,NA,NA,75%,75%
sub1,3,B,433,1,1391,d,s,f,NA,NA,75%,75%
sub1,3,B,434,1,734,n,r,s,2,1,75%,75%
sub1,3,B,435,1,738,n,r,s,2,2,75%,75%
sub1,3,B,436,1,929,d,s,s,2,3,75%,75%
sub1,3,B,437,1,778,d,s,s,2,4,75%,75%
sub1,3,B,438,1,969,n,r,f,NA,NA,75%,75%
sub1,3,B,439,1,1076,d,s,f,NA,NA,75%,75%
sub1,3,B,440,1,1048,d,s,f,NA,NA,75%,75%
sub1,3,B,441,1,1084,d,s,f,NA,NA,75%,75%
sub1,3,B,442,0,1264,d,s,f,NA,NA,75%,75%
sub1,3,B,443,1,780,n,r,s,2,1,75%,75%
sub1,3,B,444,1,731,n,r,s,2,2,75%,75%
sub1,3,B,445,1,714,d,s,s,2,3,75%,75%
sub1,3,B,446,1,762,d,s,s,2,4,75%,75%
sub1,3,B,447,1,678,n,r,f,NA,NA,75%,75%
sub1,3,B,448,1,1105,d,s,f,NA,NA,75%,75%
sub1,3,B,449,1,688,d,s,f,NA,NA,75%,75%
sub1,3,B,450,1,843,d,s,f,NA,NA,75%,75%
sub1,3,B,451,1,721,d,s,f,NA,NA,75%,75%
sub1,3,B,452,1,875,d,s,f,NA,NA,75%,75%
sub1,3,B,453,1,1008,n,r,s,2,1,75%,75%
sub1,3,B,454,1,929,n,r,s,2,2,75%,75%
sub1,3,B,455,1,1639,d,s,s,2,3,75%,75%
sub1,3,B,456,1,1533,d,s,s,2,4,75%,75%
sub1,3,B,457,1,1123,d,s,f,NA,NA,75%,75%
sub1,3,B,458,1,799,d,s,f,NA,NA,75%,75%
sub1,3,B,459,1,713,d,s,f,NA,NA,75%,75%
sub1,3,B,460,1,1451,d,s,f,NA,NA,75%,75%
sub1,3,B,461,1,993,d,s,f,NA,NA,75%,75%
sub1,3,B,462,1,1400,d,s,f,NA,NA,75%,75%
sub1,3,B,463,1,1249,d,r,s,3,1,75%,75%
sub1,3,B,464,1,1048,n,s,s,3,2,75%,75%
sub1,3,B,465,1,880,d,r,s,3,3,75%,75%
sub1,3,B,466,1,757,n,s,s,3,4,75%,75%
sub1,3,B,467,1,760,n,r,f,NA,NA,75%,75%
sub1,3,B,468,1,915,d,s,f,NA,NA,75%,75%
sub1,3,B,469,1,1168,d,s,f,NA,NA,75%,75%
sub1,3,B,470,1,881,d,s,f,NA,NA,75%,75%
sub1,3,B,471,1,960,d,r,s,3,1,75%,75%
sub1,3,B,472,1,1514,n,s,s,3,2,75%,75%
sub1,3,B,473,1,1361,d,r,s,3,3,75%,75%
sub1,3,B,474,1,1413,n,s,s,3,4,75%,75%
sub1,3,B,475,1,1098,n,r,f,NA,NA,75%,75%
sub1,3,B,476,1,915,d,s,f,NA,NA,75%,75%
sub1,3,B,477,1,1206,d,s,f,NA,NA,75%,75%
sub1,3,B,478,1,1539,d,s,f,NA,NA,75%,75%
sub1,3,B,479,1,951,d,s,f,NA,NA,75%,75%
sub1,3,B,480,1,786,d,s,f,NA,NA,75%,75%
sub1,4,A,482,1,766,d,r,f,NA,NA,25%,75%
sub1,4,A,483,1,891,d,r,f,NA,NA,25%,75%
sub1,4,A,484,1,740,d,r,f,NA,NA,25%,75%
sub1,4,A,485,1,717,d,r,f,NA,NA,25%,75%
sub1,4,A,486,1,1033,n,s,s,4,1,25%,75%
sub1,4,A,487,1,908,n,s,s,4,2,25%,75%
sub1,4,A,488,1,735,d,r,s,4,3,25%,75%
sub1,4,A,489,1,858,d,r,s,4,4,25%,75%
sub1,4,A,490,1,872,n,s,f,NA,NA,25%,75%
sub1,4,A,491,1,815,d,r,f,NA,NA,25%,75%
sub1,4,A,492,1,952,d,r,f,NA,NA,25%,75%
sub1,4,A,493,1,1214,d,r,f,NA,NA,25%,75%
sub1,4,A,494,1,852,d,r,f,NA,NA,25%,75%
sub1,4,A,495,1,1329,d,r,f,NA,NA,25%,75%
sub1,4,A,496,0,1412,d,s,s,1,1,25%,75%
sub1,4,A,497,1,1059,n,r,s,1,2,25%,75%
sub1,4,A,498,1,811,d,s,s,1,3,25%,75%
sub1,4,A,499,1,733,n,r,s,1,4,25%,75%
sub1,4,A,500,1,840,d,r,f,NA,NA,25%,75%
sub1,4,A,501,1,760,d,r,f,NA,NA,25%,75%
sub1,4,A,502,1,1825,d,r,f,NA,NA,25%,75%
sub1,4,A,503,1,811,d,r,f,NA,NA,25%,75%
sub1,4,A,504,1,879,d,r,f,NA,NA,25%,75%
sub1,4,A,505,1,819,d,r,f,NA,NA,25%,75%
sub1,4,A,506,1,1169,d,r,s,3,1,25%,75%
sub1,4,A,507,1,1282,n,s,s,3,2,25%,75%
sub1,4,A,508,0,1819,d,r,s,3,3,25%,75%
sub1,4,A,509,1,1106,n,s,s,3,4,25%,75%
sub1,4,A,510,1,1110,n,s,f,NA,NA,25%,75%
sub1,4,A,511,1,1003,d,r,f,NA,NA,25%,75%
sub1,4,A,512,1,798,d,r,f,NA,NA,25%,75%
sub1,4,A,513,1,851,d,r,f,NA,NA,25%,75%
sub1,4,A,514,1,1336,d,r,f,NA,NA,25%,75%
sub1,4,A,515,1,844,d,r,f,NA,NA,25%,75%
sub1,4,A,516,1,764,n,r,s,2,1,25%,75%
sub1,4,A,517,1,708,n,r,s,2,2,25%,75%
sub1,4,A,518,1,1768,d,s,s,2,3,25%,75%
sub1,4,A,519,1,753,d,s,s,2,4,25%,75%
sub1,4,A,520,1,1373,n,s,f,NA,NA,25%,75%
sub1,4,A,521,1,869,d,r,f,NA,NA,25%,75%
sub1,4,A,522,1,838,d,r,f,NA,NA,25%,75%
sub1,4,A,523,1,714,d,r,f,NA,NA,25%,75%
sub1,4,A,524,1,856,d,r,f,NA,NA,25%,75%
sub1,4,A,525,1,980,n,s,s,4,1,25%,75%
sub1,4,A,526,1,749,n,s,s,4,2,25%,75%
sub1,4,A,527,1,870,d,r,s,4,3,25%,75%
sub1,4,A,528,1,878,d,r,s,4,4,25%,75%
sub1,4,A,529,1,1002,n,s,f,NA,NA,25%,75%
sub1,4,A,530,1,1158,d,r,f,NA,NA,25%,75%
sub1,4,A,531,1,1177,d,r,f,NA,NA,25%,75%
sub1,4,A,532,1,1051,d,r,f,NA,NA,25%,75%
sub1,4,A,533,1,931,d,r,f,NA,NA,25%,75%
sub1,4,A,534,1,1026,d,r,f,NA,NA,25%,75%
sub1,4,A,535,1,1327,d,s,s,1,1,25%,75%
sub1,4,A,536,1,1067,n,r,s,1,2,25%,75%
sub1,4,A,537,1,1145,d,s,s,1,3,25%,75%
sub1,4,A,538,1,770,n,r,s,1,4,25%,75%
sub1,4,A,539,1,1051,n,s,f,NA,NA,25%,75%
sub1,4,A,540,1,899,d,r,f,NA,NA,25%,75%
sub1,4,A,541,0,1729,d,r,f,NA,NA,25%,75%
sub1,4,A,542,1,938,d,r,f,NA,NA,25%,75%
sub1,4,A,543,1,783,d,r,f,NA,NA,25%,75%
sub1,4,A,544,1,862,d,r,f,NA,NA,25%,75%
sub1,4,A,545,1,1159,n,s,s,4,1,25%,75%
sub1,4,A,546,1,822,n,s,s,4,2,25%,75%
sub1,4,A,547,1,780,d,r,s,4,3,25%,75%
sub1,4,A,548,1,718,d,r,s,4,4,25%,75%
sub1,4,A,549,1,1034,n,s,f,NA,NA,25%,75%
sub1,4,A,550,1,851,d,r,f,NA,NA,25%,75%
sub1,4,A,551,1,739,d,r,f,NA,NA,25%,75%
sub1,4,A,552,1,659,d,r,f,NA,NA,25%,75%
sub1,4,A,553,1,750,d,r,f,NA,NA,25%,75%
sub1,4,A,554,1,641,d,r,f,NA,NA,25%,75%
sub1,4,A,555,1,674,d,r,s,3,1,25%,75%
sub1,4,A,556,1,932,n,s,s,3,2,25%,75%
sub1,4,A,557,1,811,d,r,s,3,3,25%,75%
sub1,4,A,558,0,671,n,s,s,3,4,25%,75%
sub1,4,A,559,1,846,d,r,f,NA,NA,25%,75%
sub1,4,A,560,1,628,d,r,f,NA,NA,25%,75%
sub1,4,A,561,1,785,d,r,f,NA,NA,25%,75%
sub1,4,A,562,1,907,d,r,f,NA,NA,25%,75%
sub1,4,A,563,1,867,d,s,s,1,1,25%,75%
sub1,4,A,564,1,708,n,r,s,1,2,25%,75%
sub1,4,A,565,1,1164,d,s,s,1,3,25%,75%
sub1,4,A,566,0,699,n,r,s,1,4,25%,75%
sub1,4,A,567,1,826,n,s,f,NA,NA,25%,75%
sub1,4,A,568,1,949,d,r,f,NA,NA,25%,75%
sub1,4,A,569,1,704,d,r,f,NA,NA,25%,75%
sub1,4,A,570,1,1600,d,r,f,NA,NA,25%,75%
sub1,4,A,571,1,920,d,r,f,NA,NA,25%,75%
sub1,4,A,572,1,774,d,r,f,NA,NA,25%,75%
sub1,4,A,573,1,1057,d,s,s,1,1,25%,75%
sub1,4,A,574,1,704,n,r,s,1,2,25%,75%
sub1,4,A,575,1,805,d,s,s,1,3,25%,75%
sub1,4,A,576,1,1260,n,r,s,1,4,25%,75%
sub1,4,A,577,1,1190,d,r,f,NA,NA,25%,75%
sub1,4,A,578,1,1053,d,r,f,NA,NA,25%,75%
sub1,4,A,579,1,955,d,r,f,NA,NA,25%,75%
sub1,4,A,580,1,785,d,r,f,NA,NA,25%,75%
sub1,4,A,581,1,689,d,r,f,NA,NA,25%,75%
sub1,4,A,582,1,817,n,s,s,4,1,25%,75%
sub1,4,A,583,1,752,n,s,s,4,2,25%,75%
sub1,4,A,584,1,1085,d,r,s,4,3,25%,75%
sub1,4,A,585,1,773,d,r,s,4,4,25%,75%
sub1,4,A,586,1,815,d,r,f,NA,NA,25%,75%
sub1,4,A,587,1,723,d,r,f,NA,NA,25%,75%
sub1,4,A,588,1,689,d,r,f,NA,NA,25%,75%
sub1,4,A,589,1,641,d,r,f,NA,NA,25%,75%
sub1,4,A,590,1,1057,d,r,f,NA,NA,25%,75%
sub1,4,A,591,1,828,d,r,f,NA,NA,25%,75%
sub1,4,A,592,1,919,n,r,s,2,1,25%,75%
sub1,4,A,593,1,764,n,r,s,2,2,25%,75%
sub1,4,A,594,1,1147,d,s,s,2,3,25%,75%
sub1,4,A,595,1,742,d,s,s,2,4,25%,75%
sub1,4,A,596,1,931,d,r,f,NA,NA,25%,75%
sub1,4,A,597,1,1008,d,r,f,NA,NA,25%,75%
sub1,4,A,598,1,641,d,r,f,NA,NA,25%,75%
sub1,4,A,599,1,811,d,r,f,NA,NA,25%,75%
sub1,4,A,600,1,639,d,r,f,NA,NA,25%,75%
sub1,4,A,601,1,756,d,r,f,NA,NA,25%,75%
sub1,4,A,602,1,650,n,r,s,2,1,25%,75%
sub1,4,A,603,1,712,n,r,s,2,2,25%,75%
sub1,4,A,604,1,1133,d,s,s,2,3,25%,75%
sub1,4,A,605,1,964,d,s,s,2,4,25%,75%
sub1,4,A,606,0,696,n,s,f,NA,NA,25%,75%
sub1,4,A,607,1,893,d,r,f,NA,NA,25%,75%
sub1,4,A,608,1,966,d,r,f,NA,NA,25%,75%
sub1,4,A,609,1,1200,d,r,f,NA,NA,25%,75%
sub1,4,A,610,1,829,d,r,f,NA,NA,25%,75%
sub1,4,A,611,1,816,d,r,f,NA,NA,25%,75%
sub1,4,A,612,1,802,n,r,s,2,1,25%,75%
sub1,4,A,613,1,776,n,r,s,2,2,25%,75%
sub1,4,A,614,1,1101,d,s,s,2,3,25%,75%
sub1,4,A,615,0,1311,d,s,s,2,4,25%,75%
sub1,4,A,616,1,843,d,r,f,NA,NA,25%,75%
sub1,4,A,617,1,700,d,r,f,NA,NA,25%,75%
sub1,4,A,618,1,710,d,r,f,NA,NA,25%,75%
sub1,4,A,619,1,759,d,r,f,NA,NA,25%,75%
sub1,4,A,620,1,710,d,r,f,NA,NA,25%,75%
sub1,4,A,621,1,660,d,r,s,3,1,25%,75%
sub1,4,A,622,1,1055,n,s,s,3,2,25%,75%
sub1,4,A,623,1,765,d,r,s,3,3,25%,75%
sub1,4,A,624,1,844,n,s,s,3,4,25%,75%
sub1,4,A,625,1,716,d,r,f,NA,NA,25%,75%
sub1,4,A,626,1,703,d,r,f,NA,NA,25%,75%
sub1,4,A,627,1,834,d,r,f,NA,NA,25%,75%
sub1,4,A,628,1,708,d,r,f,NA,NA,25%,75%
sub1,4,A,629,1,767,d,r,f,NA,NA,25%,75%
sub1,4,A,630,1,675,d,r,f,NA,NA,25%,75%
sub1,4,A,631,1,738,d,r,s,3,1,25%,75%
sub1,4,A,632,1,848,n,s,s,3,2,25%,75%
sub1,4,A,633,1,931,d,r,s,3,3,25%,75%
sub1,4,A,634,1,712,n,s,s,3,4,25%,75%
sub1,4,A,635,1,812,d,r,f,NA,NA,25%,75%
sub1,4,A,636,1,653,d,r,f,NA,NA,25%,75%
sub1,4,A,637,1,684,d,r,f,NA,NA,25%,75%
sub1,4,A,638,1,722,d,r,f,NA,NA,25%,75%
sub1,4,A,639,1,1060,d,r,f,NA,NA,25%,75%
sub1,4,A,640,1,660,d,r,f,NA,NA,25%,75%
sub2,1,A,2,1,1110,d,r,f,NA,NA,25%,75%
sub2,1,A,3,1,1125,d,r,f,NA,NA,25%,75%
sub2,1,A,4,1,1219,d,r,f,NA,NA,25%,75%
sub2,1,A,5,1,828,n,r,s,2,1,25%,75%
sub2,1,A,6,1,875,n,r,s,2,2,25%,75%
sub2,1,A,7,1,1516,d,s,s,2,3,25%,75%
sub2,1,A,8,1,1468,d,s,s,2,4,25%,75%
sub2,1,A,9,1,1312,d,r,f,NA,NA,25%,75%
sub2,1,A,10,1,1031,d,r,f,NA,NA,25%,75%
sub2,1,A,11,1,1263,d,r,f,NA,NA,25%,75%
sub2,1,A,12,1,967,d,r,f,NA,NA,25%,75%
sub2,1,A,13,1,984,d,r,f,NA,NA,25%,75%
sub2,1,A,14,1,907,d,r,f,NA,NA,25%,75%
sub2,1,A,15,1,1235,n,r,s,2,1,25%,75%
sub2,1,A,16,1,985,n,r,s,2,2,25%,75%
sub2,1,A,17,1,1155,d,s,s,2,3,25%,75%
sub2,1,A,18,1,1063,d,s,s,2,4,25%,75%
sub2,1,A,19,0,1357,n,s,f,NA,NA,25%,75%
sub2,1,A,20,1,1047,d,r,f,NA,NA,25%,75%
sub2,1,A,21,1,1000,d,r,f,NA,NA,25%,75%
sub2,1,A,22,1,1000,d,r,f,NA,NA,25%,75%
sub2,1,A,23,1,985,d,r,f,NA,NA,25%,75%
sub2,1,A,24,1,1266,n,s,s,4,1,25%,75%
sub2,1,A,25,1,1046,n,s,s,4,2,25%,75%
sub2,1,A,26,1,968,d,r,s,4,3,25%,75%
sub2,1,A,27,1,904,d,r,s,4,4,25%,75%
sub2,1,A,28,1,1469,n,s,f,NA,NA,25%,75%
sub2,1,A,29,1,1031,d,r,f,NA,NA,25%,75%
sub2,1,A,30,1,1063,d,r,f,NA,NA,25%,75%
sub2,1,A,31,1,906,d,r,f,NA,NA,25%,75%
sub2,1,A,32,1,1032,d,r,f,NA,NA,25%,75%
sub2,1,A,33,1,1318,d,r,f,NA,NA,25%,75%
sub2,1,A,34,1,1186,n,s,s,4,1,25%,75%
sub2,1,A,35,1,1204,n,s,s,4,2,25%,75%
sub2,1,A,36,1,906,d,r,s,4,3,25%,75%
sub2,1,A,37,1,1172,d,r,s,4,4,25%,75%
sub2,1,A,38,1,1344,n,s,f,NA,NA,25%,75%
sub2,1,A,39,1,1218,d,r,f,NA,NA,25%,75%
sub2,1,A,40,1,828,d,r,f,NA,NA,25%,75%
sub2,1,A,41,1,843,d,r,f,NA,NA,25%,75%
sub2,1,A,42,1,1000,d,r,f,NA,NA,25%,75%
sub2,1,A,43,1,1250,d,r,f,NA,NA,25%,75%
sub2,1,A,44,0,1157,d,s,s,1,1,25%,75%
sub2,1,A,45,1,1781,n,r,s,1,2,25%,75%
sub2,1,A,46,1,1124,d,s,s,1,3,25%,75%
sub2,1,A,47,1,899,n,r,s,1,4,25%,75%
sub2,1,A,48,1,1218,d,r,f,NA,NA,25%,75%
sub2,1,A,49,1,891,d,r,f,NA,NA,25%,75%
sub2,1,A,50,1,969,d,r,f,NA,NA,25%,75%
sub2,1,A,51,1,1000,d,r,f,NA,NA,25%,75%
sub2,1,A,52,1,904,d,r,f,NA,NA,25%,75%
sub2,1,A,53,1,875,d,r,s,3,1,25%,75%
sub2,1,A,54,1,1265,n,s,s,3,2,25%,75%
sub2,1,A,55,0,1376,d,r,s,3,3,25%,75%
sub2,1,A,56,0,925,n,s,s,3,4,25%,75%
sub2,1,A,57,1,984,d,r,f,NA,NA,25%,75%
sub2,1,A,58,1,969,d,r,f,NA,NA,25%,75%
sub2,1,A,59,1,1109,d,r,f,NA,NA,25%,75%
sub2,1,A,60,1,875,d,r,f,NA,NA,25%,75%
sub2,1,A,61,1,891,d,r,f,NA,NA,25%,75%
sub2,1,A,62,1,984,d,r,f,NA,NA,25%,75%
sub2,1,A,63,0,1187,n,s,s,4,1,25%,75%
sub2,1,A,64,1,781,n,s,s,4,2,25%,75%
sub2,1,A,65,1,828,d,r,s,4,3,25%,75%
sub2,1,A,66,1,875,d,r,s,4,4,25%,75%
sub2,1,A,67,1,894,d,r,f,NA,NA,25%,75%
sub2,1,A,68,1,1281,d,r,f,NA,NA,25%,75%
sub2,1,A,69,1,971,d,r,f,NA,NA,25%,75%
sub2,1,A,70,1,891,d,r,f,NA,NA,25%,75%
sub2,1,A,71,1,822,d,r,f,NA,NA,25%,75%
sub2,1,A,72,1,1048,d,r,f,NA,NA,25%,75%
sub2,1,A,73,1,750,d,r,s,3,1,25%,75%
sub2,1,A,74,1,1500,n,s,s,3,2,25%,75%
sub2,1,A,75,1,1046,d,r,s,3,3,25%,75%
sub2,1,A,76,1,984,n,s,s,3,4,25%,75%
sub2,1,A,77,1,984,d,r,f,NA,NA,25%,75%
sub2,1,A,78,1,1126,d,r,f,NA,NA,25%,75%
sub2,1,A,79,1,1234,d,r,f,NA,NA,25%,75%
sub2,1,A,80,1,951,d,r,f,NA,NA,25%,75%
sub2,1,A,81,1,765,d,r,f,NA,NA,25%,75%
sub2,1,A,82,1,828,d,r,f,NA,NA,25%,75%
sub2,1,A,83,1,859,d,r,s,3,1,25%,75%
sub2,1,A,84,0,1103,n,s,s,3,2,25%,75%
sub2,1,A,85,1,1359,d,r,s,3,3,25%,75%
sub2,1,A,86,1,1000,n,s,s,3,4,25%,75%
sub2,1,A,87,1,859,d,r,f,NA,NA,25%,75%
sub2,1,A,88,1,830,d,r,f,NA,NA,25%,75%
sub2,1,A,89,1,953,d,r,f,NA,NA,25%,75%
sub2,1,A,90,1,750,d,r,f,NA,NA,25%,75%
sub2,1,A,91,1,844,d,r,f,NA,NA,25%,75%
sub2,1,A,92,1,953,n,r,s,2,1,25%,75%
sub2,1,A,93,1,749,n,r,s,2,2,25%,75%
sub2,1,A,94,1,1390,d,s,s,2,3,25%,75%
sub2,1,A,95,1,1047,d,s,s,2,4,25%,75%
sub2,1,A,96,1,1141,n,s,f,NA,NA,25%,75%
sub2,1,A,97,1,1016,d,r,f,NA,NA,25%,75%
sub2,1,A,98,1,1110,d,r,f,NA,NA,25%,75%
sub2,1,A,99,1,1078,d,r,f,NA,NA,25%,75%
sub2,1,A,100,0,1312,d,r,f,NA,NA,25%,75%
sub2,1,A,101,1,922,d,r,f,NA,NA,25%,75%
sub2,1,A,102,1,1203,n,s,s,4,1,25%,75%
sub2,1,A,103,1,1234,n,s,s,4,2,25%,75%
sub2,1,A,104,1,813,d,r,s,4,3,25%,75%
sub2,1,A,105,1,735,d,r,s,4,4,25%,75%
sub2,1,A,106,1,1094,n,s,f,NA,NA,25%,75%
sub2,1,A,107,1,938,d,r,f,NA,NA,25%,75%
sub2,1,A,108,1,1156,d,r,f,NA,NA,25%,75%
sub2,1,A,109,1,985,d,r,f,NA,NA,25%,75%
sub2,1,A,110,1,1011,d,r,f,NA,NA,25%,75%
sub2,1,A,111,1,953,d,r,f,NA,NA,25%,75%
sub2,1,A,112,1,1748,d,s,s,1,1,25%,75%
sub2,1,A,113,1,1218,n,r,s,1,2,25%,75%
sub2,1,A,114,1,1829,d,s,s,1,3,25%,75%
sub2,1,A,115,1,969,n,r,s,1,4,25%,75%
sub2,1,A,116,1,1219,n,s,f,NA,NA,25%,75%
sub2,1,A,117,1,937,d,r,f,NA,NA,25%,75%
sub2,1,A,118,1,844,d,r,f,NA,NA,25%,75%
sub2,1,A,119,1,1109,d,r,f,NA,NA,25%,75%
sub2,1,A,120,1,844,d,r,f,NA,NA,25%,75%
sub2,1,A,121,1,1171,d,r,f,NA,NA,25%,75%
sub2,1,A,122,1,1218,d,s,s,1,1,25%,75%
sub2,1,A,123,1,1406,n,r,s,1,2,25%,75%
sub2,1,A,124,1,1359,d,s,s,1,3,25%,75%
sub2,1,A,125,1,1062,n,r,s,1,4,25%,75%
sub2,1,A,126,1,1094,d,r,f,NA,NA,25%,75%
sub2,1,A,127,1,870,d,r,f,NA,NA,25%,75%
sub2,1,A,128,1,984,d,r,f,NA,NA,25%,75%
sub2,1,A,129,1,1453,d,r,f,NA,NA,25%,75%
sub2,1,A,130,1,1188,d,r,f,NA,NA,25%,75%
sub2,1,A,131,1,1562,d,r,f,NA,NA,25%,75%
sub2,1,A,132,1,1360,d,s,s,1,1,25%,75%
sub2,1,A,133,1,1344,n,r,s,1,2,25%,75%
sub2,1,A,134,1,1078,d,s,s,1,3,25%,75%
sub2,1,A,135,1,1107,n,r,s,1,4,25%,75%
sub2,1,A,136,0,921,n,s,f,NA,NA,25%,75%
sub2,1,A,137,1,1062,d,r,f,NA,NA,25%,75%
sub2,1,A,138,1,1203,d,r,f,NA,NA,25%,75%
sub2,1,A,139,1,1078,d,r,f,NA,NA,25%,75%
sub2,1,A,140,1,1172,d,r,f,NA,NA,25%,75%
sub2,1,A,141,1,984,d,r,s,3,1,25%,75%
sub2,1,A,142,1,1516,n,s,s,3,2,25%,75%
sub2,1,A,143,1,1781,d,r,s,3,3,25%,75%
sub2,1,A,144,1,1188,n,s,s,3,4,25%,75%
sub2,1,A,145,1,1109,n,s,f,NA,NA,25%,75%
sub2,1,A,146,1,969,d,r,f,NA,NA,25%,75%
sub2,1,A,147,1,1109,d,r,f,NA,NA,25%,75%
sub2,1,A,148,1,1203,d,r,f,NA,NA,25%,75%
sub2,1,A,149,1,1110,d,r,f,NA,NA,25%,75%
sub2,1,A,150,1,922,d,r,f,NA,NA,25%,75%
sub2,1,A,151,1,1234,n,r,s,2,1,25%,75%
sub2,1,A,152,1,984,n,r,s,2,2,25%,75%
sub2,1,A,153,1,1515,d,s,s,2,3,25%,75%
sub2,1,A,154,1,1156,d,s,s,2,4,25%,75%
sub2,1,A,155,1,1032,d,r,f,NA,NA,25%,75%
sub2,1,A,156,1,939,d,r,f,NA,NA,25%,75%
sub2,1,A,157,1,922,d,r,f,NA,NA,25%,75%
sub2,1,A,158,1,1047,d,r,f,NA,NA,25%,75%
sub2,1,A,159,1,1000,d,r,f,NA,NA,25%,75%
sub2,1,A,160,1,1109,d,r,f,NA,NA,25%,75%
sub2,2,B,162,1,1125,d,s,f,NA,NA,75%,75%
sub2,2,B,163,1,1000,d,s,f,NA,NA,75%,75%
sub2,2,B,164,1,954,d,s,f,NA,NA,75%,75%
sub2,2,B,165,1,813,d,s,f,NA,NA,75%,75%
sub2,2,B,166,1,782,n,r,s,2,1,75%,75%
sub2,2,B,167,1,1062,n,r,s,2,2,75%,75%
sub2,2,B,168,1,1219,d,s,s,2,3,75%,75%
sub2,2,B,169,1,1516,d,s,s,2,4,75%,75%
sub2,2,B,170,1,1437,d,s,f,NA,NA,75%,75%
sub2,2,B,171,1,1109,d,s,f,NA,NA,75%,75%
sub2,2,B,172,1,1563,d,s,f,NA,NA,75%,75%
sub2,2,B,173,1,1031,d,s,f,NA,NA,75%,75%
sub2,2,B,174,1,1157,d,s,f,NA,NA,75%,75%
sub2,2,B,175,1,1047,d,s,f,NA,NA,75%,75%
sub2,2,B,176,1,1484,n,r,s,2,1,75%,75%
sub2,2,B,177,1,969,n,r,s,2,2,75%,75%
sub2,2,B,178,1,875,d,s,s,2,3,75%,75%
sub2,2,B,179,1,1672,d,s,s,2,4,75%,75%
sub2,2,B,180,1,999,n,r,f,NA,NA,75%,75%
sub2,2,B,181,0,1110,d,s,f,NA,NA,75%,75%
sub2,2,B,182,1,1235,d,s,f,NA,NA,75%,75%
sub2,2,B,183,1,1625,d,s,f,NA,NA,75%,75%
sub2,2,B,184,1,1032,d,s,f,NA,NA,75%,75%
sub2,2,B,185,1,1141,d,s,f,NA,NA,75%,75%
sub2,2,B,186,1,1094,n,s,s,4,1,75%,75%
sub2,2,B,187,0,907,n,s,s,4,2,75%,75%
sub2,2,B,188,1,1235,d,r,s,4,3,75%,75%
sub2,2,B,189,0,1140,d,r,s,4,4,75%,75%
sub2,2,B,190,0,968,d,s,f,NA,NA,75%,75%
sub2,2,B,191,1,1203,d,s,f,NA,NA,75%,75%
sub2,2,B,192,1,1047,d,s,f,NA,NA,75%,75%
sub2,2,B,193,1,1234,d,s,f,NA,NA,75%,75%
sub2,2,B,194,1,828,d,s,f,NA,NA,75%,75%
sub2,2,B,195,1,2048,d,s,f,NA,NA,75%,75%
sub2,2,B,196,1,937,n,s,s,4,1,75%,75%
sub2,2,B,197,1,1219,n,s,s,4,2,75%,75%
sub2,2,B,198,1,906,d,r,s,4,3,75%,75%
sub2,2,B,199,1,953,d,r,s,4,4,75%,75%
sub2,2,B,200,0,1703,d,s,f,NA,NA,75%,75%
sub2,2,B,201,1,1062,d,s,f,NA,NA,75%,75%
sub2,2,B,202,1,1296,d,s,f,NA,NA,75%,75%
sub2,2,B,203,1,1063,d,s,f,NA,NA,75%,75%
sub2,2,B,204,1,1234,d,s,f,NA,NA,75%,75%
sub2,2,B,205,1,1062,d,s,s,1,1,75%,75%
sub2,2,B,206,1,1501,n,r,s,1,2,75%,75%
sub2,2,B,207,1,1406,d,s,s,1,3,75%,75%
sub2,2,B,208,1,828,n,r,s,1,4,75%,75%
sub2,2,B,209,1,812,n,r,f,NA,NA,75%,75%
sub2,2,B,210,1,1141,d,s,f,NA,NA,75%,75%
sub2,2,B,211,1,969,d,s,f,NA,NA,75%,75%
sub2,2,B,212,1,985,d,s,f,NA,NA,75%,75%
sub2,2,B,213,1,1031,d,s,f,NA,NA,75%,75%
sub2,2,B,214,0,1218,d,s,f,NA,NA,75%,75%
sub2,2,B,215,1,1255,d,r,s,3,1,75%,75%
sub2,2,B,216,1,1422,n,s,s,3,2,75%,75%
sub2,2,B,217,1,860,d,r,s,3,3,75%,75%
sub2,2,B,218,1,1407,n,s,s,3,4,75%,75%
sub2,2,B,219,1,1125,n,r,f,NA,NA,75%,75%
sub2,2,B,220,1,1063,d,s,f,NA,NA,75%,75%
sub2,2,B,221,1,1219,d,s,f,NA,NA,75%,75%
sub2,2,B,222,1,922,d,s,f,NA,NA,75%,75%
sub2,2,B,223,1,1281,d,s,f,NA,NA,75%,75%
sub2,2,B,224,1,1109,d,s,f,NA,NA,75%,75%
sub2,2,B,225,1,1141,n,s,s,4,1,75%,75%
sub2,2,B,226,1,952,n,s,s,4,2,75%,75%
sub2,2,B,227,1,1187,d,r,s,4,3,75%,75%
sub2,2,B,228,1,984,d,r,s,4,4,75%,75%
sub2,2,B,229,1,1719,d,s,f,NA,NA,75%,75%
sub2,2,B,230,1,1249,d,s,f,NA,NA,75%,75%
sub2,2,B,231,1,1235,d,s,f,NA,NA,75%,75%
sub2,2,B,232,1,1938,d,s,f,NA,NA,75%,75%
sub2,2,B,233,1,1813,d,s,f,NA,NA,75%,75%
sub2,2,B,234,1,1390,d,s,f,NA,NA,75%,75%
sub2,2,B,235,1,1562,d,r,s,3,1,75%,75%
sub2,2,B,236,1,1469,n,s,s,3,2,75%,75%
sub2,2,B,237,1,953,d,r,s,3,3,75%,75%
sub2,2,B,238,1,969,n,s,s,3,4,75%,75%
sub2,2,B,239,1,1263,n,r,f,NA,NA,75%,75%
sub2,2,B,240,1,1281,d,s,f,NA,NA,75%,75%
sub2,2,B,241,1,1156,d,s,f,NA,NA,75%,75%
sub2,2,B,242,1,1906,d,s,f,NA,NA,75%,75%
sub2,2,B,243,1,1251,d,r,s,3,1,75%,75%
sub2,2,B,244,1,1375,n,s,s,3,2,75%,75%
sub2,2,B,245,1,859,d,r,s,3,3,75%,75%
sub2,2,B,246,1,1390,n,s,s,3,4,75%,75%
sub2,2,B,247,1,1875,d,s,f,NA,NA,75%,75%
sub2,2,B,248,1,1547,d,s,f,NA,NA,75%,75%
sub2,2,B,249,1,1109,d,s,f,NA,NA,75%,75%
sub2,2,B,250,1,1546,d,s,f,NA,NA,75%,75%
sub2,2,B,251,1,953,d,s,f,NA,NA,75%,75%
sub2,2,B,252,1,1642,d,s,f,NA,NA,75%,75%
sub2,2,B,253,1,1021,n,r,s,2,1,75%,75%
sub2,2,B,254,1,1015,n,r,s,2,2,75%,75%
sub2,2,B,255,1,875,d,s,s,2,3,75%,75%
sub2,2,B,256,1,1250,d,s,s,2,4,75%,75%
sub2,2,B,257,0,1596,d,s,f,NA,NA,75%,75%
sub2,2,B,258,1,985,d,s,f,NA,NA,75%,75%
sub2,2,B,259,1,954,d,s,f,NA,NA,75%,75%
sub2,2,B,260,1,1328,d,s,f,NA,NA,75%,75%
sub2,2,B,261,0,921,d,s,f,NA,NA,75%,75%
sub2,2,B,262,1,1250,d,s,f,NA,NA,75%,75%
sub2,2,B,263,1,1515,n,s,s,4,1,75%,75%
sub2,2,B,264,1,969,n,s,s,4,2,75%,75%
sub2,2,B,265,1,1296,d,r,s,4,3,75%,75%
sub2,2,B,266,1,1000,d,r,s,4,4,75%,75%
sub2,2,B,267,1,891,d,s,f,NA,NA,75%,75%
sub2,2,B,268,1,1202,d,s,f,NA,NA,75%,75%
sub2,2,B,269,1,1171,d,s,f,NA,NA,75%,75%
sub2,2,B,270,1,1438,d,s,f,NA,NA,75%,75%
sub2,2,B,271,1,1031,d,s,f,NA,NA,75%,75%
sub2,2,B,272,1,1359,d,s,f,NA,NA,75%,75%
sub2,2,B,273,1,1345,d,s,s,1,1,75%,75%
sub2,2,B,274,0,1093,n,r,s,1,2,75%,75%
sub2,2,B,275,1,1672,d,s,s,1,3,75%,75%
sub2,2,B,276,1,1265,n,r,s,1,4,75%,75%
sub2,2,B,277,1,979,n,r,f,NA,NA,75%,75%
sub2,2,B,278,1,979,d,s,f,NA,NA,75%,75%
sub2,2,B,279,1,1318,d,s,f,NA,NA,75%,75%
sub2,2,B,280,1,1063,d,s,f,NA,NA,75%,75%
sub2,2,B,281,1,1344,d,s,f,NA,NA,75%,75%
sub2,2,B,282,1,906,d,s,f,NA,NA,75%,75%
sub2,2,B,283,1,1375,d,s,s,1,1,75%,75%
sub2,2,B,284,1,1015,n,r,s,1,2,75%,75%
sub2,2,B,285,1,1110,d,s,s,1,3,75%,75%
sub2,2,B,286,1,828,n,r,s,1,4,75%,75%
sub2,2,B,287,1,876,n,r,f,NA,NA,75%,75%
sub2,2,B,288,1,1500,d,s,f,NA,NA,75%,75%
sub2,2,B,289,1,876,d,s,f,NA,NA,75%,75%
sub2,2,B,290,1,1360,d,s,f,NA,NA,75%,75%
sub2,2,B,291,0,1139,d,s,f,NA,NA,75%,75%
sub2,2,B,292,1,1279,d,s,s,1,1,75%,75%
sub2,2,B,293,1,921,n,r,s,1,2,75%,75%
sub2,2,B,294,1,926,d,s,s,1,3,75%,75%
sub2,2,B,295,1,1031,n,r,s,1,4,75%,75%
sub2,2,B,296,1,875,n,r,f,NA,NA,75%,75%
sub2,2,B,297,1,1453,d,s,f,NA,NA,75%,75%
sub2,2,B,298,1,906,d,s,f,NA,NA,75%,75%
sub2,2,B,299,1,1188,d,s,f,NA,NA,75%,75%
sub2,2,B,300,1,1028,d,s,f,NA,NA,75%,75%
sub2,2,B,301,1,1000,d,r,s,3,1,75%,75%
sub2,2,B,302,0,984,n,s,s,3,2,75%,75%
sub2,2,B,303,1,844,d,r,s,3,3,75%,75%
sub2,2,B,304,1,1093,n,s,s,3,4,75%,75%
sub2,2,B,305,1,830,n,r,f,NA,NA,75%,75%
sub2,2,B,306,1,1547,d,s,f,NA,NA,75%,75%
sub2,2,B,307,1,859,d,s,f,NA,NA,75%,75%
sub2,2,B,308,1,1484,d,s,f,NA,NA,75%,75%
sub2,2,B,309,0,1515,d,s,f,NA,NA,75%,75%
sub2,2,B,310,1,1750,d,s,f,NA,NA,75%,75%
sub2,2,B,311,1,1157,n,r,s,2,1,75%,75%
sub2,2,B,312,0,2084,n,r,s,2,2,75%,75%
sub2,2,B,313,1,1375,d,s,s,2,3,75%,75%
sub2,2,B,314,1,1344,d,s,s,2,4,75%,75%
sub2,2,B,315,1,1266,d,s,f,NA,NA,75%,75%
sub2,2,B,316,1,1500,d,s,f,NA,NA,75%,75%
sub2,2,B,317,1,1250,d,s,f,NA,NA,75%,75%
sub2,2,B,318,1,1266,d,s,f,NA,NA,75%,75%
sub2,2,B,319,1,1016,d,s,f,NA,NA,75%,75%
sub2,2,B,320,1,891,d,s,f,NA,NA,75%,75%
sub2,3,D,322,1,860,n,s,f,NA,NA,75%,25%
sub2,3,D,323,1,1203,n,s,f,NA,NA,75%,25%
sub2,3,D,324,1,797,n,s,f,NA,NA,75%,25%
sub2,3,D,325,1,1171,n,s,f,NA,NA,75%,25%
sub2,3,D,326,1,828,n,r,s,2,1,75%,25%
sub2,3,D,327,1,1266,n,r,s,2,2,75%,25%
sub2,3,D,328,1,1141,d,s,s,2,3,75%,25%
sub2,3,D,329,1,953,d,s,s,2,4,75%,25%
sub2,3,D,330,1,1203,n,s,f,NA,NA,75%,25%
sub2,3,D,331,1,1219,n,s,f,NA,NA,75%,25%
sub2,3,D,332,1,951,n,s,f,NA,NA,75%,25%
sub2,3,D,333,1,1292,n,s,f,NA,NA,75%,25%
sub2,3,D,334,1,797,n,s,f,NA,NA,75%,25%
sub2,3,D,335,1,1297,n,s,f,NA,NA,75%,25%
sub2,3,D,336,1,843,n,r,s,2,1,75%,25%
sub2,3,D,337,1,1203,n,r,s,2,2,75%,25%
sub2,3,D,338,1,1343,d,s,s,2,3,75%,25%
sub2,3,D,339,1,938,d,s,s,2,4,75%,25%
sub2,3,D,340,1,2124,d,r,f,NA,NA,75%,25%
sub2,3,D,341,1,828,n,s,f,NA,NA,75%,25%
sub2,3,D,342,1,1015,n,s,f,NA,NA,75%,25%
sub2,3,D,343,1,1219,n,s,f,NA,NA,75%,25%
sub2,3,D,344,1,1344,n,s,s,4,1,75%,25%
sub2,3,D,345,1,1375,n,s,s,4,2,75%,25%
sub2,3,D,346,1,1203,d,r,s,4,3,75%,25%
sub2,3,D,347,1,1609,d,r,s,4,4,75%,25%
sub2,3,D,348,1,969,d,r,f,NA,NA,75%,25%
sub2,3,D,349,1,1391,n,s,f,NA,NA,75%,25%
sub2,3,D,350,1,843,n,s,f,NA,NA,75%,25%
sub2,3,D,351,1,1829,n,s,f,NA,NA,75%,25%
sub2,3,D,352,1,1234,n,s,f,NA,NA,75%,25%
sub2,3,D,353,1,1095,n,s,f,NA,NA,75%,25%
sub2,3,D,354,0,1312,n,s,s,4,1,75%,25%
sub2,3,D,355,1,1282,n,s,s,4,2,75%,25%
sub2,3,D,356,1,1266,d,r,s,4,3,75%,25%
sub2,3,D,357,1,1735,d,r,s,4,4,75%,25%
sub2,3,D,358,1,1921,d,r,f,NA,NA,75%,25%
sub2,3,D,359,1,999,n,s,f,NA,NA,75%,25%
sub2,3,D,360,1,1782,n,s,f,NA,NA,75%,25%
sub2,3,D,361,1,781,n,s,f,NA,NA,75%,25%
sub2,3,D,362,1,1062,n,s,f,NA,NA,75%,25%
sub2,3,D,363,1,891,d,s,s,1,1,75%,25%
sub2,3,D,364,1,891,n,r,s,1,2,75%,25%
sub2,3,D,365,1,2062,d,s,s,1,3,75%,25%
sub2,3,D,366,1,1141,n,r,s,1,4,75%,25%
sub2,3,D,367,1,1390,d,r,f,NA,NA,75%,25%
sub2,3,D,368,1,1344,n,s,f,NA,NA,75%,25%
sub2,3,D,369,0,875,n,s,f,NA,NA,75%,25%
sub2,3,D,370,1,937,n,s,f,NA,NA,75%,25%
sub2,3,D,371,1,1063,n,s,f,NA,NA,75%,25%
sub2,3,D,372,1,922,n,s,f,NA,NA,75%,25%
sub2,3,D,373,1,1235,d,r,s,3,1,75%,25%
sub2,3,D,374,1,1140,n,s,s,3,2,75%,25%
sub2,3,D,375,1,1938,d,r,s,3,3,75%,25%
sub2,3,D,376,1,1297,n,s,s,3,4,75%,25%
sub2,3,D,377,1,1937,n,s,f,NA,NA,75%,25%
sub2,3,D,378,1,1093,n,s,f,NA,NA,75%,25%
sub2,3,D,379,1,1000,n,s,f,NA,NA,75%,25%
sub2,3,D,380,1,1094,n,s,f,NA,NA,75%,25%
sub2,3,D,381,1,1156,n,s,f,NA,NA,75%,25%
sub2,3,D,382,1,1219,n,s,f,NA,NA,75%,25%
sub2,3,D,383,1,1125,n,s,s,4,1,75%,25%
sub2,3,D,384,1,953,n,s,s,4,2,75%,25%
sub2,3,D,385,1,985,d,r,s,4,3,75%,25%
sub2,3,D,386,1,1015,d,r,s,4,4,75%,25%
sub2,3,D,387,1,1109,d,r,f,NA,NA,75%,25%
sub2,3,D,388,1,1453,n,s,f,NA,NA,75%,25%
sub2,3,D,389,1,813,n,s,f,NA,NA,75%,25%
sub2,3,D,390,1,1282,n,s,f,NA,NA,75%,25%
sub2,3,D,391,1,860,n,s,f,NA,NA,75%,25%
sub2,3,D,392,1,1031,n,s,f,NA,NA,75%,25%
sub2,3,D,393,1,1375,d,r,s,3,1,75%,25%
sub2,3,D,394,1,1078,n,s,s,3,2,75%,25%
sub2,3,D,395,1,1188,d,r,s,3,3,75%,25%
sub2,3,D,396,1,1594,n,s,s,3,4,75%,25%
sub2,3,D,397,1,859,n,s,f,NA,NA,75%,25%
sub2,3,D,398,1,1734,n,s,f,NA,NA,75%,25%
sub2,3,D,399,1,1000,n,s,f,NA,NA,75%,25%
sub2,3,D,400,1,1031,n,s,f,NA,NA,75%,25%
sub2,3,D,401,1,1516,n,s,f,NA,NA,75%,25%
sub2,3,D,402,1,1451,n,s,f,NA,NA,75%,25%
sub2,3,D,403,1,1094,d,r,s,3,1,75%,25%
sub2,3,D,404,1,906,n,s,s,3,2,75%,25%
sub2,3,D,405,1,1078,d,r,s,3,3,75%,25%
sub2,3,D,406,1,2063,n,s,s,3,4,75%,25%
sub2,3,D,407,1,906,n,s,f,NA,NA,75%,25%
sub2,3,D,408,1,1094,n,s,f,NA,NA,75%,25%
sub2,3,D,409,1,1110,n,s,f,NA,NA,75%,25%
sub2,3,D,410,1,1094,n,s,f,NA,NA,75%,25%
sub2,3,D,411,1,1125,n,s,f,NA,NA,75%,25%
sub2,3,D,412,1,937,n,s,f,NA,NA,75%,25%
sub2,3,D,413,1,843,n,r,s,2,1,75%,25%
sub2,3,D,414,1,813,n,r,s,2,2,75%,25%
sub2,3,D,415,1,1655,d,s,s,2,3,75%,25%
sub2,3,D,416,1,1266,d,s,s,2,4,75%,25%
sub2,3,D,417,1,843,n,s,f,NA,NA,75%,25%
sub2,3,D,418,1,1234,n,s,f,NA,NA,75%,25%
sub2,3,D,419,1,1297,n,s,f,NA,NA,75%,25%
sub2,3,D,420,1,1359,n,s,f,NA,NA,75%,25%
sub2,3,D,421,1,1062,n,s,f,NA,NA,75%,25%
sub2,3,D,422,1,906,n,s,s,4,1,75%,25%
sub2,3,D,423,1,797,n,s,s,4,2,75%,25%
sub2,3,D,424,1,1187,d,r,s,4,3,75%,25%
sub2,3,D,425,1,1140,d,r,s,4,4,75%,25%
sub2,3,D,426,1,1000,d,r,f,NA,NA,75%,25%
sub2,3,D,427,1,1844,n,s,f,NA,NA,75%,25%
sub2,3,D,428,1,875,n,s,f,NA,NA,75%,25%
sub2,3,D,429,1,1093,n,s,f,NA,NA,75%,25%
sub2,3,D,430,1,813,n,s,f,NA,NA,75%,25%
sub2,3,D,431,1,1141,d,s,s,1,1,75%,25%
sub2,3,D,432,1,844,n,r,s,1,2,75%,25%
sub2,3,D,433,1,891,d,s,s,1,3,75%,25%
sub2,3,D,434,1,797,n,r,s,1,4,75%,25%
sub2,3,D,435,1,1019,n,s,f,NA,NA,75%,25%
sub2,3,D,436,1,906,n,s,f,NA,NA,75%,25%
sub2,3,D,437,1,828,n,s,f,NA,NA,75%,25%
sub2,3,D,438,1,828,n,s,f,NA,NA,75%,25%
sub2,3,D,439,0,828,n,s,f,NA,NA,75%,25%
sub2,3,D,440,1,906,n,s,f,NA,NA,75%,25%
sub2,3,D,441,1,1250,d,s,s,1,1,75%,25%
sub2,3,D,442,0,1282,n,r,s,1,2,75%,25%
sub2,3,D,443,1,1406,d,s,s,1,3,75%,25%
sub2,3,D,444,1,843,n,r,s,1,4,75%,25%
sub2,3,D,445,1,1046,d,r,f,NA,NA,75%,25%
sub2,3,D,446,1,1422,n,s,f,NA,NA,75%,25%
sub2,3,D,447,1,890,n,s,f,NA,NA,75%,25%
sub2,3,D,448,1,1464,n,s,f,NA,NA,75%,25%
sub2,3,D,449,1,1063,n,s,f,NA,NA,75%,25%
sub2,3,D,450,1,1086,n,s,f,NA,NA,75%,25%
sub2,3,D,451,0,1103,d,s,s,1,1,75%,25%
sub2,3,D,452,1,828,n,r,s,1,2,75%,25%
sub2,3,D,453,1,1407,d,s,s,1,3,75%,25%
sub2,3,D,454,1,1829,n,r,s,1,4,75%,25%
sub2,3,D,455,1,1305,d,r,f,NA,NA,75%,25%
sub2,3,D,456,0,870,n,s,f,NA,NA,75%,25%
sub2,3,D,457,1,922,n,s,f,NA,NA,75%,25%
sub2,3,D,458,1,1452,n,s,f,NA,NA,75%,25%
sub2,3,D,459,1,1047,n,s,f,NA,NA,75%,25%
sub2,3,D,460,1,1297,n,s,f,NA,NA,75%,25%
sub2,3,D,461,1,1625,d,r,s,3,1,75%,25%
sub2,3,D,462,1,1422,n,s,s,3,2,75%,25%
sub2,3,D,463,1,1141,d,r,s,3,3,75%,25%
sub2,3,D,464,1,906,n,s,s,3,4,75%,25%
sub2,3,D,465,1,859,n,s,f,NA,NA,75%,25%
sub2,3,D,466,1,1234,n,s,f,NA,NA,75%,25%
sub2,3,D,467,1,1187,n,s,f,NA,NA,75%,25%
sub2,3,D,468,1,1157,n,s,f,NA,NA,75%,25%
sub2,3,D,469,1,1469,n,s,f,NA,NA,75%,25%
sub2,3,D,470,1,1015,n,s,f,NA,NA,75%,25%
sub2,3,D,471,1,891,n,r,s,2,1,75%,25%
sub2,3,D,472,1,812,n,r,s,2,2,75%,25%
sub2,3,D,473,1,844,d,s,s,2,3,75%,25%
sub2,3,D,474,1,1078,d,s,s,2,4,75%,25%
sub2,3,D,475,1,969,n,s,f,NA,NA,75%,25%
sub2,3,D,476,1,829,n,s,f,NA,NA,75%,25%
sub2,3,D,477,1,828,n,s,f,NA,NA,75%,25%
sub2,3,D,478,1,828,n,s,f,NA,NA,75%,25%
sub2,3,D,479,1,1640,n,s,f,NA,NA,75%,25%
sub2,3,D,480,1,1000,n,s,f,NA,NA,75%,25%
sub2,4,C,482,1,1094,n,r,f,NA,NA,25%,25%
sub2,4,C,483,1,985,n,r,f,NA,NA,25%,25%
sub2,4,C,484,1,937,n,r,f,NA,NA,25%,25%
sub2,4,C,485,1,750,n,r,s,2,1,25%,25%
sub2,4,C,486,1,922,n,r,s,2,2,25%,25%
sub2,4,C,487,1,1266,d,s,s,2,3,25%,25%
sub2,4,C,488,1,1078,d,s,s,2,4,25%,25%
sub2,4,C,489,1,1110,d,s,f,NA,NA,25%,25%
sub2,4,C,490,1,1203,n,r,f,NA,NA,25%,25%
sub2,4,C,491,1,859,n,r,f,NA,NA,25%,25%
sub2,4,C,492,1,984,n,r,f,NA,NA,25%,25%
sub2,4,C,493,1,1033,n,r,f,NA,NA,25%,25%
sub2,4,C,494,1,891,n,r,f,NA,NA,25%,25%
sub2,4,C,495,1,859,n,r,s,2,1,25%,25%
sub2,4,C,496,1,961,n,r,s,2,2,25%,25%
sub2,4,C,497,1,1250,d,s,s,2,3,25%,25%
sub2,4,C,498,1,1078,d,s,s,2,4,25%,25%
sub2,4,C,499,1,1125,d,s,f,NA,NA,25%,25%
sub2,4,C,500,1,1281,n,r,f,NA,NA,25%,25%
sub2,4,C,501,1,859,n,r,f,NA,NA,25%,25%
sub2,4,C,502,1,953,n,r,f,NA,NA,25%,25%
sub2,4,C,503,1,1704,n,r,f,NA,NA,25%,25%
sub2,4,C,504,1,970,n,s,s,4,1,25%,25%
sub2,4,C,505,1,1968,n,s,s,4,2,25%,25%
sub2,4,C,506,1,1265,d,r,s,4,3,25%,25%
sub2,4,C,507,1,1485,d,r,s,4,4,25%,25%
sub2,4,C,508,1,1140,d,s,f,NA,NA,25%,25%
sub2,4,C,509,1,782,n,r,f,NA,NA,25%,25%
sub2,4,C,510,1,891,n,r,f,NA,NA,25%,25%
sub2,4,C,511,1,985,n,r,f,NA,NA,25%,25%
sub2,4,C,512,1,953,n,r,f,NA,NA,25%,25%
sub2,4,C,513,1,922,n,r,f,NA,NA,25%,25%
sub2,4,C,514,0,1016,n,s,s,4,1,25%,25%
sub2,4,C,515,1,874,n,s,s,4,2,25%,25%
sub2,4,C,516,1,922,d,r,s,4,3,25%,25%
sub2,4,C,517,1,717,d,r,s,4,4,25%,25%
sub2,4,C,518,1,1327,d,s,f,NA,NA,25%,25%
sub2,4,C,519,1,1487,n,r,f,NA,NA,25%,25%
sub2,4,C,520,1,969,n,r,f,NA,NA,25%,25%
sub2,4,C,521,1,1281,n,r,f,NA,NA,25%,25%
sub2,4,C,522,1,1297,n,r,f,NA,NA,25%,25%
sub2,4,C,523,1,1187,d,s,s,1,1,25%,25%
sub2,4,C,524,1,906,n,r,s,1,2,25%,25%
sub2,4,C,525,1,1312,d,s,s,1,3,25%,25%
sub2,4,C,526,1,1578,n,r,s,1,4,25%,25%
sub2,4,C,527,1,875,n,r,f,NA,NA,25%,25%
sub2,4,C,528,1,1063,n,r,f,NA,NA,25%,25%
sub2,4,C,529,1,1172,n,r,f,NA,NA,25%,25%
sub2,4,C,530,1,1001,n,r,f,NA,NA,25%,25%
sub2,4,C,531,1,953,n,r,f,NA,NA,25%,25%
sub2,4,C,532,1,1031,n,r,f,NA,NA,25%,25%
sub2,4,C,533,1,1078,d,r,s,3,1,25%,25%
sub2,4,C,534,1,1718,n,s,s,3,2,25%,25%
sub2,4,C,535,1,1203,d,r,s,3,3,25%,25%
sub2,4,C,536,1,1188,n,s,s,3,4,25%,25%
sub2,4,C,537,1,1062,n,r,f,NA,NA,25%,25%
sub2,4,C,538,1,1391,n,r,f,NA,NA,25%,25%
sub2,4,C,539,1,906,n,r,f,NA,NA,25%,25%
sub2,4,C,540,1,828,n,r,f,NA,NA,25%,25%
sub2,4,C,541,1,953,n,r,f,NA,NA,25%,25%
sub2,4,C,542,1,922,n,r,f,NA,NA,25%,25%
sub2,4,C,543,1,1000,n,s,s,4,1,25%,25%
sub2,4,C,544,1,1063,n,s,s,4,2,25%,25%
sub2,4,C,545,1,2125,d,r,s,4,3,25%,25%
sub2,4,C,546,0,NA,d,r,s,4,4,25%,25%
sub2,4,C,547,1,859,n,r,f,NA,NA,25%,25%
sub2,4,C,548,1,906,n,r,f,NA,NA,25%,25%
sub2,4,C,549,1,813,n,r,f,NA,NA,25%,25%
sub2,4,C,550,0,NA,n,r,f,NA,NA,25%,25%
sub2,4,C,551,1,828,n,r,f,NA,NA,25%,25%
sub2,4,C,552,1,1174,n,r,f,NA,NA,25%,25%
sub2,4,C,553,1,953,d,r,s,3,1,25%,25%
sub2,4,C,554,1,937,n,s,s,3,2,25%,25%
sub2,4,C,555,1,969,d,r,s,3,3,25%,25%
sub2,4,C,556,1,828,n,s,s,3,4,25%,25%
sub2,4,C,557,1,1211,d,s,f,NA,NA,25%,25%
sub2,4,C,558,1,734,n,r,f,NA,NA,25%,25%
sub2,4,C,559,1,844,n,r,f,NA,NA,25%,25%
sub2,4,C,560,1,782,n,r,f,NA,NA,25%,25%
sub2,4,C,561,1,968,d,r,s,3,1,25%,25%
sub2,4,C,562,1,907,n,s,s,3,2,25%,25%
sub2,4,C,563,1,1063,d,r,s,3,3,25%,25%
sub2,4,C,564,1,906,n,s,s,3,4,25%,25%
sub2,4,C,565,1,1047,n,r,f,NA,NA,25%,25%
sub2,4,C,566,1,844,n,r,f,NA,NA,25%,25%
sub2,4,C,567,1,1265,n,r,f,NA,NA,25%,25%
sub2,4,C,568,1,828,n,r,f,NA,NA,25%,25%
sub2,4,C,569,1,1141,n,r,f,NA,NA,25%,25%
sub2,4,C,570,1,797,n,r,f,NA,NA,25%,25%
sub2,4,C,571,1,813,n,r,s,2,1,25%,25%
sub2,4,C,572,1,813,n,r,s,2,2,25%,25%
sub2,4,C,573,1,1266,d,s,s,2,3,25%,25%
sub2,4,C,574,1,1204,d,s,s,2,4,25%,25%
sub2,4,C,575,1,875,n,r,f,NA,NA,25%,25%
sub2,4,C,576,1,843,n,r,f,NA,NA,25%,25%
sub2,4,C,577,1,732,n,r,f,NA,NA,25%,25%
sub2,4,C,578,1,828,n,r,f,NA,NA,25%,25%
sub2,4,C,579,1,766,n,r,f,NA,NA,25%,25%
sub2,4,C,580,1,875,n,r,f,NA,NA,25%,25%
sub2,4,C,581,1,877,n,s,s,4,1,25%,25%
sub2,4,C,582,1,859,n,s,s,4,2,25%,25%
sub2,4,C,583,1,921,d,r,s,4,3,25%,25%
sub2,4,C,584,1,1078,d,r,s,4,4,25%,25%
sub2,4,C,585,1,1125,n,r,f,NA,NA,25%,25%
sub2,4,C,586,1,891,n,r,f,NA,NA,25%,25%
sub2,4,C,587,1,719,n,r,f,NA,NA,25%,25%
sub2,4,C,588,1,829,n,r,f,NA,NA,25%,25%
sub2,4,C,589,0,1609,n,r,f,NA,NA,25%,25%
sub2,4,C,590,1,797,n,r,f,NA,NA,25%,25%
sub2,4,C,591,0,859,d,s,s,1,1,25%,25%
sub2,4,C,592,1,969,n,r,s,1,2,25%,25%
sub2,4,C,593,1,1532,d,s,s,1,3,25%,25%
sub2,4,C,594,1,890,n,r,s,1,4,25%,25%
sub2,4,C,595,1,1531,d,s,f,NA,NA,25%,25%
sub2,4,C,596,1,1094,n,r,f,NA,NA,25%,25%
sub2,4,C,597,1,922,n,r,f,NA,NA,25%,25%
sub2,4,C,598,1,1140,n,r,f,NA,NA,25%,25%
sub2,4,C,599,1,1047,n,r,f,NA,NA,25%,25%
sub2,4,C,600,1,796,n,r,f,NA,NA,25%,25%
sub2,4,C,601,1,969,d,s,s,1,1,25%,25%
sub2,4,C,602,1,781,n,r,s,1,2,25%,25%
sub2,4,C,603,1,1265,d,s,s,1,3,25%,25%
sub2,4,C,604,1,1032,n,r,s,1,4,25%,25%
sub2,4,C,605,1,1234,n,r,f,NA,NA,25%,25%
sub2,4,C,606,1,1250,n,r,f,NA,NA,25%,25%
sub2,4,C,607,1,1311,n,r,f,NA,NA,25%,25%
sub2,4,C,608,1,1500,n,r,f,NA,NA,25%,25%
sub2,4,C,609,1,2046,n,r,f,NA,NA,25%,25%
sub2,4,C,610,1,890,n,r,f,NA,NA,25%,25%
sub2,4,C,611,1,1484,d,s,s,1,1,25%,25%
sub2,4,C,612,1,1093,n,r,s,1,2,25%,25%
sub2,4,C,613,1,1453,d,s,s,1,3,25%,25%
sub2,4,C,614,1,1094,n,r,s,1,4,25%,25%
sub2,4,C,615,1,1109,d,s,f,NA,NA,25%,25%
sub2,4,C,616,1,937,n,r,f,NA,NA,25%,25%
sub2,4,C,617,1,1109,n,r,f,NA,NA,25%,25%
sub2,4,C,618,1,891,n,r,f,NA,NA,25%,25%
sub2,4,C,619,1,906,n,r,f,NA,NA,25%,25%
sub2,4,C,620,1,875,n,r,f,NA,NA,25%,25%
sub2,4,C,621,1,906,d,r,s,3,1,25%,25%
sub2,4,C,622,1,1828,n,s,s,3,2,25%,25%
sub2,4,C,623,1,1375,d,r,s,3,3,25%,25%
sub2,4,C,624,1,1171,n,s,s,3,4,25%,25%
sub2,4,C,625,0,874,n,r,f,NA,NA,25%,25%
sub2,4,C,626,1,906,n,r,f,NA,NA,25%,25%
sub2,4,C,627,1,984,n,r,f,NA,NA,25%,25%
sub2,4,C,628,1,1125,n,r,f,NA,NA,25%,25%
sub2,4,C,629,1,859,n,r,f,NA,NA,25%,25%
sub2,4,C,630,1,1297,n,r,f,NA,NA,25%,25%
sub2,4,C,631,0,NA,n,r,s,2,1,25%,25%
sub2,4,C,632,0,NA,n,r,s,2,2,25%,25%
sub2,4,C,633,0,NA,d,s,s,2,3,25%,25%
sub2,4,C,634,0,NA,d,s,s,2,4,25%,25%
sub2,4,C,635,0,NA,d,s,f,NA,NA,25%,25%
sub2,4,C,636,0,NA,n,r,f,NA,NA,25%,25%
sub2,4,C,637,0,NA,n,r,f,NA,NA,25%,25%
sub2,4,C,638,0,NA,n,r,f,NA,NA,25%,25%
sub2,4,C,639,0,NA,n,r,f,NA,NA,25%,25%
sub2,4,C,640,0,NA,n,r,f,NA,NA,25%,25%
sub3,1,A,2,0,NA,d,r,f,NA,NA,25%,75%
sub3,1,A,3,1,1488,d,r,f,NA,NA,25%,75%
sub3,1,A,4,0,2249,n,s,s,4,1,25%,75%
sub3,1,A,5,0,NA,n,s,s,4,2,25%,75%
sub3,1,A,6,1,2047,d,r,s,4,3,25%,75%
sub3,1,A,7,1,1953,d,r,s,4,4,25%,75%
sub3,1,A,8,1,1510,d,r,f,NA,NA,25%,75%
sub3,1,A,9,1,1528,d,r,f,NA,NA,25%,75%
sub3,1,A,10,1,1623,d,r,f,NA,NA,25%,75%
sub3,1,A,11,0,NA,d,r,f,NA,NA,25%,75%
sub3,1,A,12,1,1272,d,r,f,NA,NA,25%,75%
sub3,1,A,13,1,1236,d,r,f,NA,NA,25%,75%
sub3,1,A,14,1,1757,n,s,s,4,1,25%,75%
sub3,1,A,15,1,1771,n,s,s,4,2,25%,75%
sub3,1,A,16,1,1408,d,r,s,4,3,25%,75%
sub3,1,A,17,1,1379,d,r,s,4,4,25%,75%
sub3,1,A,18,0,1989,d,r,f,NA,NA,25%,75%
sub3,1,A,19,0,1789,d,r,f,NA,NA,25%,75%
sub3,1,A,20,1,1419,d,r,f,NA,NA,25%,75%
sub3,1,A,21,1,1835,d,r,f,NA,NA,25%,75%
sub3,1,A,22,1,1565,d,r,f,NA,NA,25%,75%
sub3,1,A,23,1,1201,d,r,f,NA,NA,25%,75%
sub3,1,A,24,1,1666,d,s,s,1,1,25%,75%
sub3,1,A,25,1,1490,n,r,s,1,2,25%,75%
sub3,1,A,26,1,2408,d,s,s,1,3,25%,75%
sub3,1,A,27,1,1455,n,r,s,1,4,25%,75%
sub3,1,A,28,1,1596,n,s,f,NA,NA,25%,75%
sub3,1,A,29,1,2366,d,r,f,NA,NA,25%,75%
sub3,1,A,30,1,1982,d,r,f,NA,NA,25%,75%
sub3,1,A,31,1,1434,d,r,f,NA,NA,25%,75%
sub3,1,A,32,1,2403,d,r,f,NA,NA,25%,75%
sub3,1,A,33,1,1579,n,r,s,2,1,25%,75%
sub3,1,A,34,1,1387,n,r,s,2,2,25%,75%
sub3,1,A,35,1,1589,d,s,s,2,3,25%,75%
sub3,1,A,36,0,1497,d,s,s,2,4,25%,75%
sub3,1,A,37,1,1647,n,s,f,NA,NA,25%,75%
sub3,1,A,38,1,2280,d,r,f,NA,NA,25%,75%
sub3,1,A,39,1,1831,d,r,f,NA,NA,25%,75%
sub3,1,A,40,1,1610,d,r,f,NA,NA,25%,75%
sub3,1,A,41,0,NA,d,r,f,NA,NA,25%,75%
sub3,1,A,42,1,1379,d,r,f,NA,NA,25%,75%
sub3,1,A,43,0,1875,d,r,s,3,1,25%,75%
sub3,1,A,44,1,1710,n,s,s,3,2,25%,75%
sub3,1,A,45,1,1399,d,r,s,3,3,25%,75%
sub3,1,A,46,1,1799,n,s,s,3,4,25%,75%
sub3,1,A,47,1,1380,n,s,f,NA,NA,25%,75%
sub3,1,A,48,1,1645,d,r,f,NA,NA,25%,75%
sub3,1,A,49,1,2467,d,r,f,NA,NA,25%,75%
sub3,1,A,50,1,2346,d,r,f,NA,NA,25%,75%
sub3,1,A,51,1,1440,d,r,f,NA,NA,25%,75%
sub3,1,A,52,1,2122,d,s,s,1,1,25%,75%
sub3,1,A,53,1,1675,n,r,s,1,2,25%,75%
sub3,1,A,54,1,1722,d,s,s,1,3,25%,75%
sub3,1,A,55,1,1830,n,r,s,1,4,25%,75%
sub3,1,A,56,0,1683,d,r,f,NA,NA,25%,75%
sub3,1,A,57,1,1305,d,r,f,NA,NA,25%,75%
sub3,1,A,58,1,1987,d,r,f,NA,NA,25%,75%
sub3,1,A,59,1,1602,d,r,f,NA,NA,25%,75%
sub3,1,A,60,1,1818,d,r,f,NA,NA,25%,75%
sub3,1,A,61,1,2247,d,r,f,NA,NA,25%,75%
sub3,1,A,62,1,2000,n,r,s,2,1,25%,75%
sub3,1,A,63,1,1293,n,r,s,2,2,25%,75%
sub3,1,A,64,0,NA,d,s,s,2,3,25%,75%
sub3,1,A,65,1,1474,d,s,s,2,4,25%,75%
sub3,1,A,66,1,1995,n,s,f,NA,NA,25%,75%
sub3,1,A,67,1,1373,d,r,f,NA,NA,25%,75%
sub3,1,A,68,1,1745,d,r,f,NA,NA,25%,75%
sub3,1,A,69,0,1524,d,r,f,NA,NA,25%,75%
sub3,1,A,70,1,1441,d,r,f,NA,NA,25%,75%
sub3,1,A,71,1,2426,d,r,f,NA,NA,25%,75%
sub3,1,A,72,1,1692,d,r,s,3,1,25%,75%
sub3,1,A,73,0,2011,n,s,s,3,2,25%,75%
sub3,1,A,74,1,1786,d,r,s,3,3,25%,75%
sub3,1,A,75,1,1774,n,s,s,3,4,25%,75%
sub3,1,A,76,1,1786,d,r,f,NA,NA,25%,75%
sub3,1,A,77,1,2031,d,r,f,NA,NA,25%,75%
sub3,1,A,78,1,1303,d,r,f,NA,NA,25%,75%
sub3,1,A,79,1,1558,d,r,f,NA,NA,25%,75%
sub3,1,A,80,0,63,d,r,f,NA,NA,25%,75%
sub3,1,A,81,1,1167,d,r,f,NA,NA,25%,75%
sub3,1,A,82,1,1508,n,r,s,2,1,25%,75%
sub3,1,A,83,0,374,n,r,s,2,2,25%,75%
sub3,1,A,84,0,2275,d,s,s,2,3,25%,75%
sub3,1,A,85,1,1957,d,s,s,2,4,25%,75%
sub3,1,A,86,1,1564,n,s,f,NA,NA,25%,75%
sub3,1,A,87,1,1738,d,r,f,NA,NA,25%,75%
sub3,1,A,88,1,1779,d,r,f,NA,NA,25%,75%
sub3,1,A,89,1,1479,d,r,f,NA,NA,25%,75%
sub3,1,A,90,1,2118,d,r,f,NA,NA,25%,75%
sub3,1,A,91,1,2451,d,r,f,NA,NA,25%,75%
sub3,1,A,92,1,1245,n,s,s,4,1,25%,75%
sub3,1,A,93,1,1398,n,s,s,4,2,25%,75%
sub3,1,A,94,1,1738,d,r,s,4,3,25%,75%
sub3,1,A,95,0,1900,d,r,s,4,4,25%,75%
sub3,1,A,96,1,2396,n,s,f,NA,NA,25%,75%
sub3,1,A,97,1,1577,d,r,f,NA,NA,25%,75%
sub3,1,A,98,1,1369,d,r,f,NA,NA,25%,75%
sub3,1,A,99,0,1237,d,r,f,NA,NA,25%,75%
sub3,1,A,100,1,1896,d,r,f,NA,NA,25%,75%
sub3,1,A,101,1,2310,d,r,f,NA,NA,25%,75%
sub3,1,A,102,1,1895,d,s,s,1,1,25%,75%
sub3,1,A,103,0,NA,n,r,s,1,2,25%,75%
sub3,1,A,104,1,2208,d,s,s,1,3,25%,75%
sub3,1,A,105,1,1772,n,r,s,1,4,25%,75%
sub3,1,A,106,1,1511,d,r,f,NA,NA,25%,75%
sub3,1,A,107,1,1348,d,r,f,NA,NA,25%,75%
sub3,1,A,108,1,1137,d,r,f,NA,NA,25%,75%
sub3,1,A,109,1,1193,d,r,f,NA,NA,25%,75%
sub3,1,A,110,0,NA,d,r,f,NA,NA,25%,75%
sub3,1,A,111,1,1184,d,r,f,NA,NA,25%,75%
sub3,1,A,112,1,1312,d,r,s,3,1,25%,75%
sub3,1,A,113,1,1309,n,s,s,3,2,25%,75%
sub3,1,A,114,1,2343,d,r,s,3,3,25%,75%
sub3,1,A,115,1,2217,n,s,s,3,4,25%,75%
sub3,1,A,116,1,1274,n,s,f,NA,NA,25%,75%
sub3,1,A,117,1,1872,d,r,f,NA,NA,25%,75%
sub3,1,A,118,1,1480,d,r,f,NA,NA,25%,75%
sub3,1,A,119,0,2112,d,r,f,NA,NA,25%,75%
sub3,1,A,120,1,1236,d,r,f,NA,NA,25%,75%
sub3,1,A,121,1,1933,d,r,f,NA,NA,25%,75%
sub3,1,A,122,1,1105,d,r,s,3,1,25%,75%
sub3,1,A,123,0,2072,n,s,s,3,2,25%,75%
sub3,1,A,124,1,1988,d,r,s,3,3,25%,75%
sub3,1,A,125,1,1405,n,s,s,3,4,25%,75%
sub3,1,A,126,1,1808,d,r,f,NA,NA,25%,75%
sub3,1,A,127,1,1654,d,r,f,NA,NA,25%,75%
sub3,1,A,128,1,1520,d,r,f,NA,NA,25%,75%
sub3,1,A,129,1,1414,d,r,f,NA,NA,25%,75%
sub3,1,A,130,1,1158,d,r,f,NA,NA,25%,75%
sub3,1,A,131,1,1225,d,r,f,NA,NA,25%,75%
sub3,1,A,132,1,1353,n,s,s,4,1,25%,75%
sub3,1,A,133,1,965,n,s,s,4,2,25%,75%
sub3,1,A,134,1,1029,d,r,s,4,3,25%,75%
sub3,1,A,135,1,1428,d,r,s,4,4,25%,75%
sub3,1,A,136,1,1486,d,r,f,NA,NA,25%,75%
sub3,1,A,137,0,1859,d,r,f,NA,NA,25%,75%
sub3,1,A,138,1,1177,d,r,f,NA,NA,25%,75%
sub3,1,A,139,1,1548,d,r,f,NA,NA,25%,75%
sub3,1,A,140,1,1132,d,r,f,NA,NA,25%,75%
sub3,1,A,141,1,1985,d,r,f,NA,NA,25%,75%
sub3,1,A,142,1,949,d,s,s,1,1,25%,75%
sub3,1,A,143,1,1954,n,r,s,1,2,25%,75%
sub3,1,A,144,0,1660,d,s,s,1,3,25%,75%
sub3,1,A,145,1,1439,n,r,s,1,4,25%,75%
sub3,1,A,146,1,2107,d,r,f,NA,NA,25%,75%
sub3,1,A,147,1,1463,d,r,f,NA,NA,25%,75%
sub3,1,A,148,1,1707,d,r,f,NA,NA,25%,75%
sub3,1,A,149,1,1415,d,r,f,NA,NA,25%,75%
sub3,1,A,150,1,1489,d,r,f,NA,NA,25%,75%
sub3,1,A,151,1,1597,d,r,f,NA,NA,25%,75%
sub3,1,A,152,1,1565,n,r,s,2,1,25%,75%
sub3,1,A,153,1,1280,n,r,s,2,2,25%,75%
sub3,1,A,154,1,1099,d,s,s,2,3,25%,75%
sub3,1,A,155,1,2283,d,s,s,2,4,25%,75%
sub3,1,A,156,1,1822,n,s,f,NA,NA,25%,75%
sub3,1,A,157,1,2054,d,r,f,NA,NA,25%,75%
sub3,1,A,158,1,1794,d,r,f,NA,NA,25%,75%
sub3,1,A,159,0,1501,d,r,f,NA,NA,25%,75%
sub3,1,A,160,1,1669,d,r,f,NA,NA,25%,75%
sub3,2,B,162,1,2147,d,s,f,NA,NA,75%,75%
sub3,2,B,163,1,1598,d,s,f,NA,NA,75%,75%
sub3,2,B,164,1,1768,d,s,f,NA,NA,75%,75%
sub3,2,B,165,1,1740,d,s,f,NA,NA,75%,75%
sub3,2,B,166,1,1821,n,s,s,4,1,75%,75%
sub3,2,B,167,1,1787,n,s,s,4,2,75%,75%
sub3,2,B,168,1,1879,d,r,s,4,3,75%,75%
sub3,2,B,169,0,1466,d,r,s,4,4,75%,75%
sub3,2,B,170,1,1788,n,r,f,NA,NA,75%,75%
sub3,2,B,171,1,2066,d,s,f,NA,NA,75%,75%
sub3,2,B,172,1,1743,d,s,f,NA,NA,75%,75%
sub3,2,B,173,1,1259,d,s,f,NA,NA,75%,75%
sub3,2,B,174,1,1715,n,s,s,4,1,75%,75%
sub3,2,B,175,1,1421,n,s,s,4,2,75%,75%
sub3,2,B,176,1,1641,d,r,s,4,3,75%,75%
sub3,2,B,177,1,1642,d,r,s,4,4,75%,75%
sub3,2,B,178,0,2127,d,s,f,NA,NA,75%,75%
sub3,2,B,179,1,1354,d,s,f,NA,NA,75%,75%
sub3,2,B,180,0,NA,d,s,f,NA,NA,75%,75%
sub3,2,B,181,0,2013,d,s,f,NA,NA,75%,75%
sub3,2,B,182,1,1533,d,s,f,NA,NA,75%,75%
sub3,2,B,183,1,1317,d,s,s,1,1,75%,75%
sub3,2,B,184,1,1410,n,r,s,1,2,75%,75%
sub3,2,B,185,1,1994,d,s,s,1,3,75%,75%
sub3,2,B,186,0,NA,n,r,s,1,4,75%,75%
sub3,2,B,187,1,1336,n,r,f,NA,NA,75%,75%
sub3,2,B,188,1,1415,d,s,f,NA,NA,75%,75%
sub3,2,B,189,1,1146,d,s,f,NA,NA,75%,75%
sub3,2,B,190,1,1762,d,s,f,NA,NA,75%,75%
sub3,2,B,191,1,1623,d,s,f,NA,NA,75%,75%
sub3,2,B,192,1,2238,n,r,s,2,1,75%,75%
sub3,2,B,193,1,1403,n,r,s,2,2,75%,75%
sub3,2,B,194,1,1294,d,s,s,2,3,75%,75%
sub3,2,B,195,0,1758,d,s,s,2,4,75%,75%
sub3,2,B,196,1,1023,n,r,f,NA,NA,75%,75%
sub3,2,B,197,1,1416,d,s,f,NA,NA,75%,75%
sub3,2,B,198,0,1416,d,s,f,NA,NA,75%,75%
sub3,2,B,199,1,1478,d,s,f,NA,NA,75%,75%
sub3,2,B,200,1,1231,d,s,f,NA,NA,75%,75%
sub3,2,B,201,1,1179,d,s,f,NA,NA,75%,75%
sub3,2,B,202,1,1259,d,r,s,3,1,75%,75%
sub3,2,B,203,0,1381,n,s,s,3,2,75%,75%
sub3,2,B,204,1,2396,d,r,s,3,3,75%,75%
sub3,2,B,205,1,1254,n,s,s,3,4,75%,75%
sub3,2,B,206,1,1494,n,r,f,NA,NA,75%,75%
sub3,2,B,207,1,2080,d,s,f,NA,NA,75%,75%
sub3,2,B,208,1,1694,d,s,f,NA,NA,75%,75%
sub3,2,B,209,1,1471,d,s,f,NA,NA,75%,75%
sub3,2,B,210,1,1336,d,s,f,NA,NA,75%,75%
sub3,2,B,211,1,1238,d,s,f,NA,NA,75%,75%
sub3,2,B,212,1,1713,d,s,s,1,1,75%,75%
sub3,2,B,213,1,1356,n,r,s,1,2,75%,75%
sub3,2,B,214,1,1740,d,s,s,1,3,75%,75%
sub3,2,B,215,1,1118,n,r,s,1,4,75%,75%
sub3,2,B,216,1,1464,n,r,f,NA,NA,75%,75%
sub3,2,B,217,1,1371,d,s,f,NA,NA,75%,75%
sub3,2,B,218,1,1617,d,s,f,NA,NA,75%,75%
sub3,2,B,219,1,1972,d,s,f,NA,NA,75%,75%
sub3,2,B,220,1,1222,d,s,f,NA,NA,75%,75%
sub3,2,B,221,1,1584,d,s,f,NA,NA,75%,75%
sub3,2,B,222,1,1208,n,r,s,2,1,75%,75%
sub3,2,B,223,1,1335,n,r,s,2,2,75%,75%
sub3,2,B,224,1,1739,d,s,s,2,3,75%,75%
sub3,2,B,225,1,2001,d,s,s,2,4,75%,75%
sub3,2,B,226,1,1860,d,s,f,NA,NA,75%,75%
sub3,2,B,227,1,1616,d,s,f,NA,NA,75%,75%
sub3,2,B,228,1,1106,d,s,f,NA,NA,75%,75%
sub3,2,B,229,1,1671,d,s,f,NA,NA,75%,75%
sub3,2,B,230,0,1478,d,s,f,NA,NA,75%,75%
sub3,2,B,231,1,1271,d,r,s,3,1,75%,75%
sub3,2,B,232,1,1225,n,s,s,3,2,75%,75%
sub3,2,B,233,1,1607,d,r,s,3,3,75%,75%
sub3,2,B,234,1,1492,n,s,s,3,4,75%,75%
sub3,2,B,235,0,2244,n,r,f,NA,NA,75%,75%
sub3,2,B,236,1,1393,d,s,f,NA,NA,75%,75%
sub3,2,B,237,0,1122,d,s,f,NA,NA,75%,75%
sub3,2,B,238,1,1361,d,s,f,NA,NA,75%,75%
sub3,2,B,239,0,1456,d,s,f,NA,NA,75%,75%
sub3,2,B,240,0,1407,d,s,f,NA,NA,75%,75%
sub3,2,B,241,1,1027,n,r,s,2,1,75%,75%
sub3,2,B,242,1,1214,n,r,s,2,2,75%,75%
sub3,2,B,243,1,1059,d,s,s,2,3,75%,75%
sub3,2,B,244,1,1505,d,s,s,2,4,75%,75%
sub3,2,B,245,1,1580,d,s,f,NA,NA,75%,75%
sub3,2,B,246,1,1429,d,s,f,NA,NA,75%,75%
sub3,2,B,247,1,1459,d,s,f,NA,NA,75%,75%
sub3,2,B,248,1,1442,d,s,f,NA,NA,75%,75%
sub3,2,B,249,0,1129,d,s,f,NA,NA,75%,75%
sub3,2,B,250,1,1552,d,s,f,NA,NA,75%,75%
sub3,2,B,251,1,1250,n,s,s,4,1,75%,75%
sub3,2,B,252,1,1302,n,s,s,4,2,75%,75%
sub3,2,B,253,1,1344,d,r,s,4,3,75%,75%
sub3,2,B,254,1,1181,d,r,s,4,4,75%,75%
sub3,2,B,255,1,1585,d,s,f,NA,NA,75%,75%
sub3,2,B,256,1,1515,d,s,f,NA,NA,75%,75%
sub3,2,B,257,1,1381,d,s,f,NA,NA,75%,75%
sub3,2,B,258,1,1597,d,s,f,NA,NA,75%,75%
sub3,2,B,259,1,1430,d,s,f,NA,NA,75%,75%
sub3,2,B,260,1,1168,d,s,f,NA,NA,75%,75%
sub3,2,B,261,1,1175,d,s,s,1,1,75%,75%
sub3,2,B,262,1,1289,n,r,s,1,2,75%,75%
sub3,2,B,263,1,1206,d,s,s,1,3,75%,75%
sub3,2,B,264,1,1353,n,r,s,1,4,75%,75%
sub3,2,B,265,1,1109,d,s,f,NA,NA,75%,75%
sub3,2,B,266,0,1290,d,s,f,NA,NA,75%,75%
sub3,2,B,267,1,1567,d,s,f,NA,NA,75%,75%
sub3,2,B,268,1,1859,d,s,f,NA,NA,75%,75%
sub3,2,B,269,1,1328,d,s,f,NA,NA,75%,75%
sub3,2,B,270,1,1663,d,s,f,NA,NA,75%,75%
sub3,2,B,271,1,1180,d,r,s,3,1,75%,75%
sub3,2,B,272,1,1425,n,s,s,3,2,75%,75%
sub3,2,B,273,1,1547,d,r,s,3,3,75%,75%
sub3,2,B,274,1,1057,n,s,s,3,4,75%,75%
sub3,2,B,275,1,1458,d,s,f,NA,NA,75%,75%
sub3,2,B,276,1,1514,d,s,f,NA,NA,75%,75%
sub3,2,B,277,1,1476,d,s,f,NA,NA,75%,75%
sub3,2,B,278,1,2125,d,s,f,NA,NA,75%,75%
sub3,2,B,279,1,1627,d,s,f,NA,NA,75%,75%
sub3,2,B,280,1,1305,d,s,f,NA,NA,75%,75%
sub3,2,B,281,1,1277,d,r,s,3,1,75%,75%
sub3,2,B,282,0,1685,n,s,s,3,2,75%,75%
sub3,2,B,283,1,1208,d,r,s,3,3,75%,75%
sub3,2,B,284,1,1983,n,s,s,3,4,75%,75%
sub3,2,B,285,1,1385,d,s,f,NA,NA,75%,75%
sub3,2,B,286,1,1687,d,s,f,NA,NA,75%,75%
sub3,2,B,287,1,1213,d,s,f,NA,NA,75%,75%
sub3,2,B,288,1,1275,d,s,f,NA,NA,75%,75%
sub3,2,B,289,1,1441,d,s,f,NA,NA,75%,75%
sub3,2,B,290,1,1419,d,s,f,NA,NA,75%,75%
sub3,2,B,291,0,1762,n,s,s,4,1,75%,75%
sub3,2,B,292,1,1455,n,s,s,4,2,75%,75%
sub3,2,B,293,1,1229,d,r,s,4,3,75%,75%
sub3,2,B,294,1,1215,d,r,s,4,4,75%,75%
sub3,2,B,295,1,1266,n,r,f,NA,NA,75%,75%
sub3,2,B,296,1,1690,d,s,f,NA,NA,75%,75%
sub3,2,B,297,1,1144,d,s,f,NA,NA,75%,75%
sub3,2,B,298,0,1469,d,s,f,NA,NA,75%,75%
sub3,2,B,299,1,1998,d,s,f,NA,NA,75%,75%
sub3,2,B,300,1,1659,d,s,f,NA,NA,75%,75%
sub3,2,B,301,1,1580,d,s,s,1,1,75%,75%
sub3,2,B,302,1,1706,n,r,s,1,2,75%,75%
sub3,2,B,303,1,1571,d,s,s,1,3,75%,75%
sub3,2,B,304,1,1284,n,r,s,1,4,75%,75%
sub3,2,B,305,1,1142,d,s,f,NA,NA,75%,75%
sub3,2,B,306,1,1388,d,s,f,NA,NA,75%,75%
sub3,2,B,307,0,1447,d,s,f,NA,NA,75%,75%
sub3,2,B,308,1,1610,d,s,f,NA,NA,75%,75%
sub3,2,B,309,1,2215,d,s,f,NA,NA,75%,75%
sub3,2,B,310,0,1873,d,s,f,NA,NA,75%,75%
sub3,2,B,311,1,1436,n,r,s,2,1,75%,75%
sub3,2,B,312,1,2110,n,r,s,2,2,75%,75%
sub3,2,B,313,1,1535,d,s,s,2,3,75%,75%
sub3,2,B,314,1,1846,d,s,s,2,4,75%,75%
sub3,2,B,315,1,1790,n,r,f,NA,NA,75%,75%
sub3,2,B,316,1,1839,d,s,f,NA,NA,75%,75%
sub3,2,B,317,1,1393,d,s,f,NA,NA,75%,75%
sub3,2,B,318,1,1907,d,s,f,NA,NA,75%,75%
sub3,2,B,319,1,1255,d,s,f,NA,NA,75%,75%
sub3,2,B,320,1,1394,d,s,f,NA,NA,75%,75%
sub3,3,D,322,1,1771,n,s,f,NA,NA,75%,25%
sub3,3,D,323,1,1525,n,s,f,NA,NA,75%,25%
sub3,3,D,324,1,1218,n,s,f,NA,NA,75%,25%
sub3,3,D,325,1,1295,n,s,f,NA,NA,75%,25%
sub3,3,D,326,1,1598,n,s,s,4,1,75%,25%
sub3,3,D,327,1,1477,n,s,s,4,2,75%,25%
sub3,3,D,328,1,1567,d,r,s,4,3,75%,25%
sub3,3,D,329,1,1260,d,r,s,4,4,75%,25%
sub3,3,D,330,1,1581,n,s,f,NA,NA,75%,25%
sub3,3,D,331,1,1594,n,s,f,NA,NA,75%,25%
sub3,3,D,332,1,2077,n,s,f,NA,NA,75%,25%
sub3,3,D,333,1,1429,n,s,f,NA,NA,75%,25%
sub3,3,D,334,1,1382,n,s,f,NA,NA,75%,25%
sub3,3,D,335,0,NA,n,s,f,NA,NA,75%,25%
sub3,3,D,336,1,1015,n,s,s,4,1,75%,25%
sub3,3,D,337,1,1219,n,s,s,4,2,75%,25%
sub3,3,D,338,1,1244,d,r,s,4,3,75%,25%
sub3,3,D,339,1,1220,d,r,s,4,4,75%,25%
sub3,3,D,340,0,1087,n,s,f,NA,NA,75%,25%
sub3,3,D,341,1,1698,n,s,f,NA,NA,75%,25%
sub3,3,D,342,1,1246,n,s,f,NA,NA,75%,25%
sub3,3,D,343,1,1641,n,s,f,NA,NA,75%,25%
sub3,3,D,344,1,1796,n,s,f,NA,NA,75%,25%
sub3,3,D,345,1,1136,n,s,f,NA,NA,75%,25%
sub3,3,D,346,1,1164,d,s,s,1,1,75%,25%
sub3,3,D,347,0,1223,n,r,s,1,2,75%,25%
sub3,3,D,348,1,1791,d,s,s,1,3,75%,25%
sub3,3,D,349,1,1505,n,r,s,1,4,75%,25%
sub3,3,D,350,1,1461,d,r,f,NA,NA,75%,25%
sub3,3,D,351,0,1196,n,s,f,NA,NA,75%,25%
sub3,3,D,352,0,1157,n,s,f,NA,NA,75%,25%
sub3,3,D,353,1,1589,n,s,f,NA,NA,75%,25%
sub3,3,D,354,1,1930,n,s,f,NA,NA,75%,25%
sub3,3,D,355,1,1358,n,s,f,NA,NA,75%,25%
sub3,3,D,356,0,1848,n,r,s,2,1,75%,25%
sub3,3,D,357,1,1343,n,r,s,2,2,75%,25%
sub3,3,D,358,1,1175,d,s,s,2,3,75%,25%
sub3,3,D,359,1,1626,d,s,s,2,4,75%,25%
sub3,3,D,360,1,1155,n,s,f,NA,NA,75%,25%
sub3,3,D,361,1,1149,n,s,f,NA,NA,75%,25%
sub3,3,D,362,1,1290,n,s,f,NA,NA,75%,25%
sub3,3,D,363,1,1265,n,s,f,NA,NA,75%,25%
sub3,3,D,364,1,1179,d,r,s,3,1,75%,25%
sub3,3,D,365,1,1330,n,s,s,3,2,75%,25%
sub3,3,D,366,1,1458,d,r,s,3,3,75%,25%
sub3,3,D,367,1,1147,n,s,s,3,4,75%,25%
sub3,3,D,368,0,1144,d,r,f,NA,NA,75%,25%
sub3,3,D,369,0,NA,n,s,f,NA,NA,75%,25%
sub3,3,D,370,1,2434,n,s,f,NA,NA,75%,25%
sub3,3,D,371,1,2119,n,s,f,NA,NA,75%,25%
sub3,3,D,372,0,NA,d,s,s,1,1,75%,25%
sub3,3,D,373,1,1410,n,r,s,1,2,75%,25%
sub3,3,D,374,0,1981,d,s,s,1,3,75%,25%
sub3,3,D,375,1,1294,n,r,s,1,4,75%,25%
sub3,3,D,376,1,1327,d,r,f,NA,NA,75%,25%
sub3,3,D,377,1,1453,n,s,f,NA,NA,75%,25%
sub3,3,D,378,1,1230,n,s,f,NA,NA,75%,25%
sub3,3,D,379,1,2017,n,s,f,NA,NA,75%,25%
sub3,3,D,380,1,2031,n,s,f,NA,NA,75%,25%
sub3,3,D,381,1,2430,n,s,f,NA,NA,75%,25%
sub3,3,D,382,0,NA,n,r,s,2,1,75%,25%
sub3,3,D,383,0,1893,n,r,s,2,2,75%,25%
sub3,3,D,384,1,1750,d,s,s,2,3,75%,25%
sub3,3,D,385,1,1778,d,s,s,2,4,75%,25%
sub3,3,D,386,1,1180,n,s,f,NA,NA,75%,25%
sub3,3,D,387,1,1614,n,s,f,NA,NA,75%,25%
sub3,3,D,388,1,1702,n,s,f,NA,NA,75%,25%
sub3,3,D,389,1,1141,n,s,f,NA,NA,75%,25%
sub3,3,D,390,1,1431,n,s,f,NA,NA,75%,25%
sub3,3,D,391,1,1343,n,s,f,NA,NA,75%,25%
sub3,3,D,392,1,1180,d,r,s,3,1,75%,25%
sub3,3,D,393,1,1785,n,s,s,3,2,75%,25%
sub3,3,D,394,1,1474,d,r,s,3,3,75%,25%
sub3,3,D,395,1,963,n,s,s,3,4,75%,25%
sub3,3,D,396,1,1206,d,r,f,NA,NA,75%,25%
sub3,3,D,397,1,1176,n,s,f,NA,NA,75%,25%
sub3,3,D,398,1,1598,n,s,f,NA,NA,75%,25%
sub3,3,D,399,0,1233,n,s,f,NA,NA,75%,25%
sub3,3,D,400,1,1177,n,s,f,NA,NA,75%,25%
sub3,3,D,401,1,1539,n,s,f,NA,NA,75%,25%
sub3,3,D,402,1,1615,n,r,s,2,1,75%,25%
sub3,3,D,403,1,1018,n,r,s,2,2,75%,25%
sub3,3,D,404,1,1376,d,s,s,2,3,75%,25%
sub3,3,D,405,1,1032,d,s,s,2,4,75%,25%
sub3,3,D,406,1,1121,d,r,f,NA,NA,75%,25%
sub3,3,D,407,1,1733,n,s,f,NA,NA,75%,25%
sub3,3,D,408,0,NA,n,s,f,NA,NA,75%,25%
sub3,3,D,409,1,2433,n,s,f,NA,NA,75%,25%
sub3,3,D,410,1,1702,n,s,f,NA,NA,75%,25%
sub3,3,D,411,1,1670,n,s,f,NA,NA,75%,25%
sub3,3,D,412,1,1559,n,s,s,4,1,75%,25%
sub3,3,D,413,0,1690,n,s,s,4,2,75%,25%
sub3,3,D,414,1,1519,d,r,s,4,3,75%,25%
sub3,3,D,415,1,1948,d,r,s,4,4,75%,25%
sub3,3,D,416,1,1470,d,r,f,NA,NA,75%,25%
sub3,3,D,417,1,1421,n,s,f,NA,NA,75%,25%
sub3,3,D,418,1,1171,n,s,f,NA,NA,75%,25%
sub3,3,D,419,1,1742,n,s,f,NA,NA,75%,25%
sub3,3,D,420,1,1279,n,s,f,NA,NA,75%,25%
sub3,3,D,421,1,1175,n,s,f,NA,NA,75%,25%
sub3,3,D,422,1,1304,d,s,s,1,1,75%,25%
sub3,3,D,423,0,NA,n,r,s,1,2,75%,25%
sub3,3,D,424,1,2323,d,s,s,1,3,75%,25%
sub3,3,D,425,1,1259,n,r,s,1,4,75%,25%
sub3,3,D,426,1,1642,n,s,f,NA,NA,75%,25%
sub3,3,D,427,0,NA,n,s,f,NA,NA,75%,25%
sub3,3,D,428,0,384,n,s,f,NA,NA,75%,25%
sub3,3,D,429,1,1224,n,s,f,NA,NA,75%,25%
sub3,3,D,430,1,1163,n,s,f,NA,NA,75%,25%
sub3,3,D,431,1,1249,n,s,f,NA,NA,75%,25%
sub3,3,D,432,0,1712,d,r,s,3,1,75%,25%
sub3,3,D,433,0,NA,n,s,s,3,2,75%,25%
sub3,3,D,434,1,1207,d,r,s,3,3,75%,25%
sub3,3,D,435,0,1460,n,s,s,3,4,75%,25%
sub3,3,D,436,1,2451,n,s,f,NA,NA,75%,25%
sub3,3,D,437,1,1522,n,s,f,NA,NA,75%,25%
sub3,3,D,438,1,1005,n,s,f,NA,NA,75%,25%
sub3,3,D,439,1,1246,n,s,f,NA,NA,75%,25%
sub3,3,D,440,1,1560,n,s,f,NA,NA,75%,25%
sub3,3,D,441,1,1066,n,s,f,NA,NA,75%,25%
sub3,3,D,442,1,1203,d,r,s,3,1,75%,25%
sub3,3,D,443,1,1776,n,s,s,3,2,75%,25%
sub3,3,D,444,0,1455,d,r,s,3,3,75%,25%
sub3,3,D,445,1,1172,n,s,s,3,4,75%,25%
sub3,3,D,446,1,1295,n,s,f,NA,NA,75%,25%
sub3,3,D,447,1,1324,n,s,f,NA,NA,75%,25%
sub3,3,D,448,1,1087,n,s,f,NA,NA,75%,25%
sub3,3,D,449,1,1474,n,s,f,NA,NA,75%,25%
sub3,3,D,450,1,1614,n,s,f,NA,NA,75%,25%
sub3,3,D,451,1,1127,n,s,s,4,1,75%,25%
sub3,3,D,452,1,1331,n,s,s,4,2,75%,25%
sub3,3,D,453,1,1172,d,r,s,4,3,75%,25%
sub3,3,D,454,1,1618,d,r,s,4,4,75%,25%
sub3,3,D,455,1,1484,d,r,f,NA,NA,75%,25%
sub3,3,D,456,1,1433,n,s,f,NA,NA,75%,25%
sub3,3,D,457,1,1018,n,s,f,NA,NA,75%,25%
sub3,3,D,458,1,1824,n,s,f,NA,NA,75%,25%
sub3,3,D,459,1,1248,n,s,f,NA,NA,75%,25%
sub3,3,D,460,1,1199,n,s,f,NA,NA,75%,25%
sub3,3,D,461,1,1744,d,s,s,1,1,75%,25%
sub3,3,D,462,1,1432,n,r,s,1,2,75%,25%
sub3,3,D,463,1,1496,d,s,s,1,3,75%,25%
sub3,3,D,464,1,1990,n,r,s,1,4,75%,25%
sub3,3,D,465,0,1942,n,s,f,NA,NA,75%,25%
sub3,3,D,466,1,1736,n,s,f,NA,NA,75%,25%
sub3,3,D,467,1,1458,n,s,f,NA,NA,75%,25%
sub3,3,D,468,1,1030,n,s,f,NA,NA,75%,25%
sub3,3,D,469,1,1233,n,s,f,NA,NA,75%,25%
sub3,3,D,470,1,1742,n,s,f,NA,NA,75%,25%
sub3,3,D,471,1,918,n,r,s,2,1,75%,25%
sub3,3,D,472,1,974,n,r,s,2,2,75%,25%
sub3,3,D,473,0,2038,d,s,s,2,3,75%,25%
sub3,3,D,474,1,1494,d,s,s,2,4,75%,25%
sub3,3,D,475,1,1080,d,r,f,NA,NA,75%,25%
sub3,3,D,476,1,1281,n,s,f,NA,NA,75%,25%
sub3,3,D,477,1,1648,n,s,f,NA,NA,75%,25%
sub3,3,D,478,0,1680,n,s,f,NA,NA,75%,25%
sub3,3,D,479,1,1353,n,s,f,NA,NA,75%,25%
sub3,3,D,480,1,1326,n,s,f,NA,NA,75%,25%
sub3,4,C,482,1,1138,n,r,f,NA,NA,25%,25%
sub3,4,C,483,1,1187,n,r,f,NA,NA,25%,25%
sub3,4,C,484,1,925,n,r,f,NA,NA,25%,25%
sub3,4,C,485,1,999,n,r,f,NA,NA,25%,25%
sub3,4,C,486,1,1188,n,s,s,4,1,25%,25%
sub3,4,C,487,0,NA,n,s,s,4,2,25%,25%
sub3,4,C,488,1,2392,d,r,s,4,3,25%,25%
sub3,4,C,489,1,1123,d,r,s,4,4,25%,25%
sub3,4,C,490,1,1263,n,r,f,NA,NA,25%,25%
sub3,4,C,491,1,1274,n,r,f,NA,NA,25%,25%
sub3,4,C,492,0,1233,n,r,f,NA,NA,25%,25%
sub3,4,C,493,1,1165,n,r,f,NA,NA,25%,25%
sub3,4,C,494,1,1896,n,s,s,4,1,25%,25%
sub3,4,C,495,1,1452,n,s,s,4,2,25%,25%
sub3,4,C,496,1,1715,d,r,s,4,3,25%,25%
sub3,4,C,497,1,1119,d,r,s,4,4,25%,25%
sub3,4,C,498,1,1199,n,r,f,NA,NA,25%,25%
sub3,4,C,499,0,1360,n,r,f,NA,NA,25%,25%
sub3,4,C,500,1,1333,n,r,f,NA,NA,25%,25%
sub3,4,C,501,1,1026,n,r,f,NA,NA,25%,25%
sub3,4,C,502,1,2320,d,s,s,1,1,25%,25%
sub3,4,C,503,1,1761,n,r,s,1,2,25%,25%
sub3,4,C,504,1,1632,d,s,s,1,3,25%,25%
sub3,4,C,505,1,1438,n,r,s,1,4,25%,25%
sub3,4,C,506,1,1377,d,s,f,NA,NA,25%,25%
sub3,4,C,507,1,1283,n,r,f,NA,NA,25%,25%
sub3,4,C,508,0,1607,n,r,f,NA,NA,25%,25%
sub3,4,C,509,1,1104,n,r,f,NA,NA,25%,25%
sub3,4,C,510,1,1259,n,r,f,NA,NA,25%,25%
sub3,4,C,511,1,1060,n,r,f,NA,NA,25%,25%
sub3,4,C,512,1,1211,n,r,s,2,1,25%,25%
sub3,4,C,513,1,1034,n,r,s,2,2,25%,25%
sub3,4,C,514,1,1868,d,s,s,2,3,25%,25%
sub3,4,C,515,1,1552,d,s,s,2,4,25%,25%
sub3,4,C,516,1,1360,n,r,f,NA,NA,25%,25%
sub3,4,C,517,1,1061,n,r,f,NA,NA,25%,25%
sub3,4,C,518,0,1099,n,r,f,NA,NA,25%,25%
sub3,4,C,519,1,1137,n,r,f,NA,NA,25%,25%
sub3,4,C,520,1,1488,n,r,f,NA,NA,25%,25%
sub3,4,C,521,1,1240,n,r,f,NA,NA,25%,25%
sub3,4,C,522,1,1625,d,r,s,3,1,25%,25%
sub3,4,C,523,1,648,n,s,s,3,2,25%,25%
sub3,4,C,524,1,1504,d,r,s,3,3,25%,25%
sub3,4,C,525,1,969,n,s,s,3,4,25%,25%
sub3,4,C,526,1,1063,n,r,f,NA,NA,25%,25%
sub3,4,C,527,1,1402,n,r,f,NA,NA,25%,25%
sub3,4,C,528,0,1318,n,r,f,NA,NA,25%,25%
sub3,4,C,529,1,1589,n,r,f,NA,NA,25%,25%
sub3,4,C,530,1,1408,n,r,f,NA,NA,25%,25%
sub3,4,C,531,1,1169,n,r,f,NA,NA,25%,25%
sub3,4,C,532,1,1448,d,s,s,1,1,25%,25%
sub3,4,C,533,1,1504,n,r,s,1,2,25%,25%
sub3,4,C,534,1,1213,d,s,s,1,3,25%,25%
sub3,4,C,535,1,1544,n,r,s,1,4,25%,25%
sub3,4,C,536,1,1338,d,s,f,NA,NA,25%,25%
sub3,4,C,537,1,1042,n,r,f,NA,NA,25%,25%
sub3,4,C,538,1,1126,n,r,f,NA,NA,25%,25%
sub3,4,C,539,1,1420,n,r,f,NA,NA,25%,25%
sub3,4,C,540,1,922,n,r,f,NA,NA,25%,25%
sub3,4,C,541,1,1123,n,r,f,NA,NA,25%,25%
sub3,4,C,542,1,1066,n,r,s,2,1,25%,25%
sub3,4,C,543,1,1156,n,r,s,2,2,25%,25%
sub3,4,C,544,1,1634,d,s,s,2,3,25%,25%
sub3,4,C,545,1,1318,d,s,s,2,4,25%,25%
sub3,4,C,546,1,1019,n,r,f,NA,NA,25%,25%
sub3,4,C,547,1,1126,n,r,f,NA,NA,25%,25%
sub3,4,C,548,1,987,n,r,f,NA,NA,25%,25%
sub3,4,C,549,1,1756,n,r,f,NA,NA,25%,25%
sub3,4,C,550,0,1962,n,r,f,NA,NA,25%,25%
sub3,4,C,551,1,1580,d,r,s,3,1,25%,25%
sub3,4,C,552,1,1492,n,s,s,3,2,25%,25%
sub3,4,C,553,0,1461,d,r,s,3,3,25%,25%
sub3,4,C,554,1,1842,n,s,s,3,4,25%,25%
sub3,4,C,555,1,1203,n,r,f,NA,NA,25%,25%
sub3,4,C,556,1,1449,n,r,f,NA,NA,25%,25%
sub3,4,C,557,1,1095,n,r,f,NA,NA,25%,25%
sub3,4,C,558,1,1728,n,r,f,NA,NA,25%,25%
sub3,4,C,559,0,2399,n,r,f,NA,NA,25%,25%
sub3,4,C,560,1,982,n,r,f,NA,NA,25%,25%
sub3,4,C,561,1,1017,n,r,s,2,1,25%,25%
sub3,4,C,562,1,945,n,r,s,2,2,25%,25%
sub3,4,C,563,1,1244,d,s,s,2,3,25%,25%
sub3,4,C,564,1,1010,d,s,s,2,4,25%,25%
sub3,4,C,565,1,1286,d,s,f,NA,NA,25%,25%
sub3,4,C,566,1,1320,n,r,f,NA,NA,25%,25%
sub3,4,C,567,1,1145,n,r,f,NA,NA,25%,25%
sub3,4,C,568,1,1460,n,r,f,NA,NA,25%,25%
sub3,4,C,569,1,1761,n,r,f,NA,NA,25%,25%
sub3,4,C,570,1,1104,n,r,f,NA,NA,25%,25%
sub3,4,C,571,1,1789,n,s,s,4,1,25%,25%
sub3,4,C,572,0,1191,n,s,s,4,2,25%,25%
sub3,4,C,573,1,1533,d,r,s,4,3,25%,25%
sub3,4,C,574,1,1010,d,r,s,4,4,25%,25%
sub3,4,C,575,1,1302,n,r,f,NA,NA,25%,25%
sub3,4,C,576,1,1047,n,r,f,NA,NA,25%,25%
sub3,4,C,577,1,965,n,r,f,NA,NA,25%,25%
sub3,4,C,578,1,1140,n,r,f,NA,NA,25%,25%
sub3,4,C,579,1,1307,n,r,f,NA,NA,25%,25%
sub3,4,C,580,1,1506,n,r,f,NA,NA,25%,25%
sub3,4,C,581,0,1711,d,s,s,1,1,25%,25%
sub3,4,C,582,1,1168,n,r,s,1,2,25%,25%
sub3,4,C,583,1,1289,d,s,s,1,3,25%,25%
sub3,4,C,584,0,1494,n,r,s,1,4,25%,25%
sub3,4,C,585,1,1216,n,r,f,NA,NA,25%,25%
sub3,4,C,586,1,1270,n,r,f,NA,NA,25%,25%
sub3,4,C,587,1,1474,n,r,f,NA,NA,25%,25%
sub3,4,C,588,1,1608,n,r,f,NA,NA,25%,25%
sub3,4,C,589,1,1067,n,r,f,NA,NA,25%,25%
sub3,4,C,590,0,1448,n,r,f,NA,NA,25%,25%
sub3,4,C,591,1,1715,d,r,s,3,1,25%,25%
sub3,4,C,592,0,1632,n,s,s,3,2,25%,25%
sub3,4,C,593,0,1302,d,r,s,3,3,25%,25%
sub3,4,C,594,1,1134,n,s,s,3,4,25%,25%
sub3,4,C,595,1,1616,d,s,f,NA,NA,25%,25%
sub3,4,C,596,1,1015,n,r,f,NA,NA,25%,25%
sub3,4,C,597,1,1102,n,r,f,NA,NA,25%,25%
sub3,4,C,598,1,999,n,r,f,NA,NA,25%,25%
sub3,4,C,599,0,936,n,r,f,NA,NA,25%,25%
sub3,4,C,600,1,1438,n,r,f,NA,NA,25%,25%
sub3,4,C,601,1,957,d,r,s,3,1,25%,25%
sub3,4,C,602,1,1243,n,s,s,3,2,25%,25%
sub3,4,C,603,1,982,d,r,s,3,3,25%,25%
sub3,4,C,604,0,1870,n,s,s,3,4,25%,25%
sub3,4,C,605,1,1065,d,s,f,NA,NA,25%,25%
sub3,4,C,606,1,920,n,r,f,NA,NA,25%,25%
sub3,4,C,607,1,961,n,r,f,NA,NA,25%,25%
sub3,4,C,608,1,1587,n,r,f,NA,NA,25%,25%
sub3,4,C,609,1,1284,n,r,f,NA,NA,25%,25%
sub3,4,C,610,1,1298,n,r,f,NA,NA,25%,25%
sub3,4,C,611,1,1387,n,s,s,4,1,25%,25%
sub3,4,C,612,1,1009,n,s,s,4,2,25%,25%
sub3,4,C,613,1,1081,d,r,s,4,3,25%,25%
sub3,4,C,614,1,1113,d,r,s,4,4,25%,25%
sub3,4,C,615,1,1174,d,s,f,NA,NA,25%,25%
sub3,4,C,616,1,1219,n,r,f,NA,NA,25%,25%
sub3,4,C,617,1,259,n,r,f,NA,NA,25%,25%
sub3,4,C,618,1,1370,n,r,f,NA,NA,25%,25%
sub3,4,C,619,1,1199,n,r,f,NA,NA,25%,25%
sub3,4,C,620,1,961,n,r,f,NA,NA,25%,25%
sub3,4,C,621,1,1022,d,s,s,1,1,25%,25%
sub3,4,C,622,1,1027,n,r,s,1,2,25%,25%
sub3,4,C,623,0,955,d,s,s,1,3,25%,25%
sub3,4,C,624,0,1087,n,r,s,1,4,25%,25%
sub3,4,C,625,1,1115,d,s,f,NA,NA,25%,25%
sub3,4,C,626,1,1186,n,r,f,NA,NA,25%,25%
sub3,4,C,627,1,1512,n,r,f,NA,NA,25%,25%
sub3,4,C,628,1,986,n,r,f,NA,NA,25%,25%
sub3,4,C,629,1,1285,n,r,f,NA,NA,25%,25%
sub3,4,C,630,1,997,n,r,f,NA,NA,25%,25%
sub3,4,C,631,1,982,n,r,s,2,1,25%,25%
sub3,4,C,632,1,1318,n,r,s,2,2,25%,25%
sub3,4,C,633,1,1022,d,s,s,2,3,25%,25%
sub3,4,C,634,0,1065,d,s,s,2,4,25%,25%
sub3,4,C,635,1,1467,d,s,f,NA,NA,25%,25%
sub3,4,C,636,1,1372,n,r,f,NA,NA,25%,25%
sub3,4,C,637,0,1183,n,r,f,NA,NA,25%,25%
sub3,4,C,638,1,1092,n,r,f,NA,NA,25%,25%
sub3,4,C,639,0,1191,n,r,f,NA,NA,25%,25%
sub3,4,C,640,0,1500,n,r,f,NA,NA,25%,25%
sub4,1,A,2,1,1052,d,r,f,NA,NA,25%,75%
sub4,1,A,3,1,1020,d,r,f,NA,NA,25%,75%
sub4,1,A,4,1,1225,d,r,f,NA,NA,25%,75%
sub4,1,A,5,1,1056,d,r,f,NA,NA,25%,75%
sub4,1,A,6,1,870,n,r,s,2,1,25%,75%
sub4,1,A,7,1,859,n,r,s,2,2,25%,75%
sub4,1,A,8,1,1951,d,s,s,2,3,25%,75%
sub4,1,A,9,1,1221,d,s,s,2,4,25%,75%
sub4,1,A,10,1,1407,n,s,f,NA,NA,25%,75%
sub4,1,A,11,1,1683,d,r,f,NA,NA,25%,75%
sub4,1,A,12,1,1192,d,r,f,NA,NA,25%,75%
sub4,1,A,13,1,1125,d,r,f,NA,NA,25%,75%
sub4,1,A,14,1,1248,d,r,f,NA,NA,25%,75%
sub4,1,A,15,1,1707,d,r,f,NA,NA,25%,75%
sub4,1,A,16,1,1339,n,s,s,4,1,25%,75%
sub4,1,A,17,1,1188,n,s,s,4,2,25%,75%
sub4,1,A,18,1,1219,d,r,s,4,3,25%,75%
sub4,1,A,19,1,1145,d,r,s,4,4,25%,75%
sub4,1,A,20,1,1036,d,r,f,NA,NA,25%,75%
sub4,1,A,21,1,998,d,r,f,NA,NA,25%,75%
sub4,1,A,22,1,2246,d,r,f,NA,NA,25%,75%
sub4,1,A,23,1,1024,d,r,f,NA,NA,25%,75%
sub4,1,A,24,1,1179,d,r,f,NA,NA,25%,75%
sub4,1,A,25,1,1088,d,r,f,NA,NA,25%,75%
sub4,1,A,26,1,1169,n,s,s,4,1,25%,75%
sub4,1,A,27,1,1203,n,s,s,4,2,25%,75%
sub4,1,A,28,1,1176,d,r,s,4,3,25%,75%
sub4,1,A,29,1,1161,d,r,s,4,4,25%,75%
sub4,1,A,30,1,908,n,s,f,NA,NA,25%,75%
sub4,1,A,31,1,959,d,r,f,NA,NA,25%,75%
sub4,1,A,32,1,1261,d,r,f,NA,NA,25%,75%
sub4,1,A,33,1,1310,d,r,f,NA,NA,25%,75%
sub4,1,A,34,1,1054,d,r,f,NA,NA,25%,75%
sub4,1,A,35,1,1687,n,s,s,4,1,25%,75%
sub4,1,A,36,1,1508,n,s,s,4,2,25%,75%
sub4,1,A,37,1,995,d,r,s,4,3,25%,75%
sub4,1,A,38,1,1017,d,r,s,4,4,25%,75%
sub4,1,A,39,1,1495,d,r,f,NA,NA,25%,75%
sub4,1,A,40,1,1029,d,r,f,NA,NA,25%,75%
sub4,1,A,41,1,1607,d,r,f,NA,NA,25%,75%
sub4,1,A,42,1,785,d,r,f,NA,NA,25%,75%
sub4,1,A,43,1,909,d,r,f,NA,NA,25%,75%
sub4,1,A,44,1,870,d,r,f,NA,NA,25%,75%
sub4,1,A,45,1,699,d,r,s,3,1,25%,75%
sub4,1,A,46,1,1656,n,s,s,3,2,25%,75%
sub4,1,A,47,1,981,d,r,s,3,3,25%,75%
sub4,1,A,48,1,1153,n,s,s,3,4,25%,75%
sub4,1,A,49,1,1159,n,s,f,NA,NA,25%,75%
sub4,1,A,50,1,1203,d,r,f,NA,NA,25%,75%
sub4,1,A,51,1,908,d,r,f,NA,NA,25%,75%
sub4,1,A,52,1,2345,d,r,f,NA,NA,25%,75%
sub4,1,A,53,1,1158,d,r,f,NA,NA,25%,75%
sub4,1,A,54,1,1723,d,s,s,1,1,25%,75%
sub4,1,A,55,1,1152,n,r,s,1,2,25%,75%
sub4,1,A,56,1,1223,d,s,s,1,3,25%,75%
sub4,1,A,57,1,836,n,r,s,1,4,25%,75%
sub4,1,A,58,1,983,d,r,f,NA,NA,25%,75%
sub4,1,A,59,1,956,d,r,f,NA,NA,25%,75%
sub4,1,A,60,1,820,d,r,f,NA,NA,25%,75%
sub4,1,A,61,1,961,d,r,f,NA,NA,25%,75%
sub4,1,A,62,1,843,d,r,f,NA,NA,25%,75%
sub4,1,A,63,1,910,d,r,s,3,1,25%,75%
sub4,1,A,64,1,1372,n,s,s,3,2,25%,75%
sub4,1,A,65,1,1519,d,r,s,3,3,25%,75%
sub4,1,A,66,1,958,n,s,s,3,4,25%,75%
sub4,1,A,67,1,1039,n,s,f,NA,NA,25%,75%
sub4,1,A,68,1,993,d,r,f,NA,NA,25%,75%
sub4,1,A,69,1,1123,d,r,f,NA,NA,25%,75%
sub4,1,A,70,1,860,d,r,f,NA,NA,25%,75%
sub4,1,A,71,1,973,d,r,f,NA,NA,25%,75%
sub4,1,A,72,1,857,d,r,f,NA,NA,25%,75%
sub4,1,A,73,1,1065,d,s,s,1,1,25%,75%
sub4,1,A,74,1,1142,n,r,s,1,2,25%,75%
sub4,1,A,75,1,1094,d,s,s,1,3,25%,75%
sub4,1,A,76,1,727,n,r,s,1,4,25%,75%
sub4,1,A,77,1,791,n,s,f,NA,NA,25%,75%
sub4,1,A,78,1,970,d,r,f,NA,NA,25%,75%
sub4,1,A,79,1,1551,d,r,f,NA,NA,25%,75%
sub4,1,A,80,1,1114,d,r,f,NA,NA,25%,75%
sub4,1,A,81,1,2254,d,r,f,NA,NA,25%,75%
sub4,1,A,82,1,824,d,r,f,NA,NA,25%,75%
sub4,1,A,83,1,1383,d,s,s,1,1,25%,75%
sub4,1,A,84,1,1015,n,r,s,1,2,25%,75%
sub4,1,A,85,1,1245,d,s,s,1,3,25%,75%
sub4,1,A,86,1,797,n,r,s,1,4,25%,75%
sub4,1,A,87,1,1097,n,s,f,NA,NA,25%,75%
sub4,1,A,88,1,1181,d,r,f,NA,NA,25%,75%
sub4,1,A,89,1,1243,d,r,f,NA,NA,25%,75%
sub4,1,A,90,1,962,d,r,f,NA,NA,25%,75%
sub4,1,A,91,1,694,d,r,f,NA,NA,25%,75%
sub4,1,A,92,1,778,d,r,f,NA,NA,25%,75%
sub4,1,A,93,1,840,n,s,s,4,1,25%,75%
sub4,1,A,94,1,1180,n,s,s,4,2,25%,75%
sub4,1,A,95,1,710,d,r,s,4,3,25%,75%
sub4,1,A,96,1,817,d,r,s,4,4,25%,75%
sub4,1,A,97,1,777,n,s,f,NA,NA,25%,75%
sub4,1,A,98,1,965,d,r,f,NA,NA,25%,75%
sub4,1,A,99,1,887,d,r,f,NA,NA,25%,75%
sub4,1,A,100,1,959,d,r,f,NA,NA,25%,75%
sub4,1,A,101,1,994,d,r,f,NA,NA,25%,75%
sub4,1,A,102,1,1516,d,s,s,1,1,25%,75%
sub4,1,A,103,1,804,n,r,s,1,2,25%,75%
sub4,1,A,104,1,1291,d,s,s,1,3,25%,75%
sub4,1,A,105,1,796,n,r,s,1,4,25%,75%
sub4,1,A,106,1,1249,d,r,f,NA,NA,25%,75%
sub4,1,A,107,1,1585,d,r,f,NA,NA,25%,75%
sub4,1,A,108,1,1513,d,r,f,NA,NA,25%,75%
sub4,1,A,109,1,1911,d,r,f,NA,NA,25%,75%
sub4,1,A,110,1,859,d,r,f,NA,NA,25%,75%
sub4,1,A,111,1,1170,d,r,f,NA,NA,25%,75%
sub4,1,A,112,1,2080,d,r,s,3,1,25%,75%
sub4,1,A,113,1,1083,n,s,s,3,2,25%,75%
sub4,1,A,114,1,1132,d,r,s,3,3,25%,75%
sub4,1,A,115,1,990,n,s,s,3,4,25%,75%
sub4,1,A,116,1,856,d,r,f,NA,NA,25%,75%
sub4,1,A,117,1,2029,d,r,f,NA,NA,25%,75%
sub4,1,A,118,1,1119,d,r,f,NA,NA,25%,75%
sub4,1,A,119,1,1431,d,r,f,NA,NA,25%,75%
sub4,1,A,120,1,991,d,r,f,NA,NA,25%,75%
sub4,1,A,121,1,883,d,r,f,NA,NA,25%,75%
sub4,1,A,122,1,864,n,r,s,2,1,25%,75%
sub4,1,A,123,1,698,n,r,s,2,2,25%,75%
sub4,1,A,124,1,1650,d,s,s,2,3,25%,75%
sub4,1,A,125,1,1647,d,s,s,2,4,25%,75%
sub4,1,A,126,1,837,d,r,f,NA,NA,25%,75%
sub4,1,A,127,1,902,d,r,f,NA,NA,25%,75%
sub4,1,A,128,1,779,d,r,f,NA,NA,25%,75%
sub4,1,A,129,1,1385,d,r,f,NA,NA,25%,75%
sub4,1,A,130,1,820,d,r,f,NA,NA,25%,75%
sub4,1,A,131,1,686,d,r,s,3,1,25%,75%
sub4,1,A,132,1,1081,n,s,s,3,2,25%,75%
sub4,1,A,133,1,931,d,r,s,3,3,25%,75%
sub4,1,A,134,1,704,n,s,s,3,4,25%,75%
sub4,1,A,135,1,1393,n,s,f,NA,NA,25%,75%
sub4,1,A,136,1,1023,d,r,f,NA,NA,25%,75%
sub4,1,A,137,1,2022,d,r,f,NA,NA,25%,75%
sub4,1,A,138,1,1370,d,r,f,NA,NA,25%,75%
sub4,1,A,139,1,979,d,r,f,NA,NA,25%,75%
sub4,1,A,140,1,1155,d,r,f,NA,NA,25%,75%
sub4,1,A,141,1,770,n,r,s,2,1,25%,75%
sub4,1,A,142,1,872,n,r,s,2,2,25%,75%
sub4,1,A,143,1,874,d,s,s,2,3,25%,75%
sub4,1,A,144,1,775,d,s,s,2,4,25%,75%
sub4,1,A,145,1,1688,d,r,f,NA,NA,25%,75%
sub4,1,A,146,1,915,d,r,f,NA,NA,25%,75%
sub4,1,A,147,1,763,d,r,f,NA,NA,25%,75%
sub4,1,A,148,1,1035,d,r,f,NA,NA,25%,75%
sub4,1,A,149,1,909,d,r,f,NA,NA,25%,75%
sub4,1,A,150,1,1170,d,r,f,NA,NA,25%,75%
sub4,1,A,151,1,787,n,r,s,2,1,25%,75%
sub4,1,A,152,1,758,n,r,s,2,2,25%,75%
sub4,1,A,153,1,1100,d,s,s,2,3,25%,75%
sub4,1,A,154,1,1052,d,s,s,2,4,25%,75%
sub4,1,A,155,1,960,d,r,f,NA,NA,25%,75%
sub4,1,A,156,1,1088,d,r,f,NA,NA,25%,75%
sub4,1,A,157,1,887,d,r,f,NA,NA,25%,75%
sub4,1,A,158,1,963,d,r,f,NA,NA,25%,75%
sub4,1,A,159,1,874,d,r,f,NA,NA,25%,75%
sub4,1,A,160,1,1057,d,r,f,NA,NA,25%,75%
sub4,2,B,162,1,1179,d,s,f,NA,NA,75%,75%
sub4,2,B,163,1,887,d,s,f,NA,NA,75%,75%
sub4,2,B,164,1,772,n,r,s,2,1,75%,75%
sub4,2,B,165,1,657,n,r,s,2,2,75%,75%
sub4,2,B,166,1,757,d,s,s,2,3,75%,75%
sub4,2,B,167,1,919,d,s,s,2,4,75%,75%
sub4,2,B,168,1,1489,d,s,f,NA,NA,75%,75%
sub4,2,B,169,1,896,d,s,f,NA,NA,75%,75%
sub4,2,B,170,1,1465,d,s,f,NA,NA,75%,75%
sub4,2,B,171,1,1688,d,s,f,NA,NA,75%,75%
sub4,2,B,172,1,919,d,s,f,NA,NA,75%,75%
sub4,2,B,173,1,849,d,s,f,NA,NA,75%,75%
sub4,2,B,174,1,858,n,s,s,4,1,75%,75%
sub4,2,B,175,1,1037,n,s,s,4,2,75%,75%
sub4,2,B,176,1,1215,d,r,s,4,3,75%,75%
sub4,2,B,177,1,854,d,r,s,4,4,75%,75%
sub4,2,B,178,1,952,n,r,f,NA,NA,75%,75%
sub4,2,B,179,1,1979,d,s,f,NA,NA,75%,75%
sub4,2,B,180,1,1081,d,s,f,NA,NA,75%,75%
sub4,2,B,181,1,1469,d,s,f,NA,NA,75%,75%
sub4,2,B,182,1,1257,d,s,f,NA,NA,75%,75%
sub4,2,B,183,1,891,d,s,f,NA,NA,75%,75%
sub4,2,B,184,1,926,n,s,s,4,1,75%,75%
sub4,2,B,185,1,1189,n,s,s,4,2,75%,75%
sub4,2,B,186,1,1038,d,r,s,4,3,75%,75%
sub4,2,B,187,1,986,d,r,s,4,4,75%,75%
sub4,2,B,188,1,713,n,r,f,NA,NA,75%,75%
sub4,2,B,189,1,1875,d,s,f,NA,NA,75%,75%
sub4,2,B,190,1,1409,d,s,f,NA,NA,75%,75%
sub4,2,B,191,1,1517,d,s,f,NA,NA,75%,75%
sub4,2,B,192,1,1230,d,s,f,NA,NA,75%,75%
sub4,2,B,193,1,919,d,s,f,NA,NA,75%,75%
sub4,2,B,194,1,1129,n,s,s,4,1,75%,75%
sub4,2,B,195,1,949,n,s,s,4,2,75%,75%
sub4,2,B,196,1,957,d,r,s,4,3,75%,75%
sub4,2,B,197,1,926,d,r,s,4,4,75%,75%
sub4,2,B,198,1,959,n,r,f,NA,NA,75%,75%
sub4,2,B,199,1,805,d,s,f,NA,NA,75%,75%
sub4,2,B,200,1,857,d,s,f,NA,NA,75%,75%
sub4,2,B,201,1,839,d,s,f,NA,NA,75%,75%
sub4,2,B,202,1,761,d,s,f,NA,NA,75%,75%
sub4,2,B,203,1,863,d,s,f,NA,NA,75%,75%
sub4,2,B,204,1,1869,d,r,s,3,1,75%,75%
sub4,2,B,205,1,762,n,s,s,3,2,75%,75%
sub4,2,B,206,1,1291,d,r,s,3,3,75%,75%
sub4,2,B,207,1,763,n,s,s,3,4,75%,75%
sub4,2,B,208,0,1489,n,r,f,NA,NA,75%,75%
sub4,2,B,209,1,2314,d,s,f,NA,NA,75%,75%
sub4,2,B,210,1,1398,d,s,f,NA,NA,75%,75%
sub4,2,B,211,1,1008,d,s,f,NA,NA,75%,75%
sub4,2,B,212,1,1050,d,s,s,1,1,75%,75%
sub4,2,B,213,1,1026,n,r,s,1,2,75%,75%
sub4,2,B,214,1,1546,d,s,s,1,3,75%,75%
sub4,2,B,215,1,920,n,r,s,1,4,75%,75%
sub4,2,B,216,1,1241,n,r,f,NA,NA,75%,75%
sub4,2,B,217,1,986,d,s,f,NA,NA,75%,75%
sub4,2,B,218,1,1066,d,s,f,NA,NA,75%,75%
sub4,2,B,219,1,1380,d,s,f,NA,NA,75%,75%
sub4,2,B,220,1,1035,d,s,f,NA,NA,75%,75%
sub4,2,B,221,1,1877,d,s,f,NA,NA,75%,75%
sub4,2,B,222,1,857,d,r,s,3,1,75%,75%
sub4,2,B,223,1,1117,n,s,s,3,2,75%,75%
sub4,2,B,224,1,1083,d,r,s,3,3,75%,75%
sub4,2,B,225,1,762,n,s,s,3,4,75%,75%
sub4,2,B,226,1,1621,d,s,f,NA,NA,75%,75%
sub4,2,B,227,1,1087,d,s,f,NA,NA,75%,75%
sub4,2,B,228,1,990,d,s,f,NA,NA,75%,75%
sub4,2,B,229,1,938,d,s,f,NA,NA,75%,75%
sub4,2,B,230,1,1037,d,s,f,NA,NA,75%,75%
sub4,2,B,231,1,1137,d,s,f,NA,NA,75%,75%
sub4,2,B,232,1,1232,d,s,s,1,1,75%,75%
sub4,2,B,233,1,706,n,r,s,1,2,75%,75%
sub4,2,B,234,1,1017,d,s,s,1,3,75%,75%
sub4,2,B,235,1,715,n,r,s,1,4,75%,75%
sub4,2,B,236,1,1055,d,s,f,NA,NA,75%,75%
sub4,2,B,237,1,853,d,s,f,NA,NA,75%,75%
sub4,2,B,238,1,798,d,s,f,NA,NA,75%,75%
sub4,2,B,239,1,1661,d,s,f,NA,NA,75%,75%
sub4,2,B,240,1,863,d,s,f,NA,NA,75%,75%
sub4,2,B,241,1,1356,d,s,f,NA,NA,75%,75%
sub4,2,B,242,1,869,d,s,s,1,1,75%,75%
sub4,2,B,243,1,1215,n,r,s,1,2,75%,75%
sub4,2,B,244,1,1233,d,s,s,1,3,75%,75%
sub4,2,B,245,1,1740,n,r,s,1,4,75%,75%
sub4,2,B,246,1,1722,d,s,f,NA,NA,75%,75%
sub4,2,B,247,1,1333,d,s,f,NA,NA,75%,75%
sub4,2,B,248,1,1186,d,s,f,NA,NA,75%,75%
sub4,2,B,249,1,816,d,s,f,NA,NA,75%,75%
sub4,2,B,250,1,967,d,s,f,NA,NA,75%,75%
sub4,2,B,251,1,977,d,s,f,NA,NA,75%,75%
sub4,2,B,252,1,1422,n,s,s,4,1,75%,75%
sub4,2,B,253,1,975,n,s,s,4,2,75%,75%
sub4,2,B,254,1,1090,d,r,s,4,3,75%,75%
sub4,2,B,255,1,1851,d,r,s,4,4,75%,75%
sub4,2,B,256,1,1625,d,s,f,NA,NA,75%,75%
sub4,2,B,257,1,2262,d,s,f,NA,NA,75%,75%
sub4,2,B,258,1,1006,d,s,f,NA,NA,75%,75%
sub4,2,B,259,1,1445,d,s,f,NA,NA,75%,75%
sub4,2,B,260,1,1002,d,s,f,NA,NA,75%,75%
sub4,2,B,261,1,1078,d,s,f,NA,NA,75%,75%
sub4,2,B,262,1,789,d,s,s,1,1,75%,75%
sub4,2,B,263,1,1114,n,r,s,1,2,75%,75%
sub4,2,B,264,1,1070,d,s,s,1,3,75%,75%
sub4,2,B,265,1,2219,n,r,s,1,4,75%,75%
sub4,2,B,266,1,1462,d,s,f,NA,NA,75%,75%
sub4,2,B,267,1,875,d,s,f,NA,NA,75%,75%
sub4,2,B,268,1,863,d,s,f,NA,NA,75%,75%
sub4,2,B,269,1,987,d,s,f,NA,NA,75%,75%
sub4,2,B,270,1,1323,d,s,f,NA,NA,75%,75%
sub4,2,B,271,1,1048,d,s,f,NA,NA,75%,75%
sub4,2,B,272,1,772,d,r,s,3,1,75%,75%
sub4,2,B,273,1,1059,n,s,s,3,2,75%,75%
sub4,2,B,274,1,886,d,r,s,3,3,75%,75%
sub4,2,B,275,1,1778,n,s,s,3,4,75%,75%
sub4,2,B,276,1,1156,d,s,f,NA,NA,75%,75%
sub4,2,B,277,1,1310,d,s,f,NA,NA,75%,75%
sub4,2,B,278,1,1327,d,s,f,NA,NA,75%,75%
sub4,2,B,279,1,922,d,s,f,NA,NA,75%,75%
sub4,2,B,280,1,877,d,s,f,NA,NA,75%,75%
sub4,2,B,281,1,856,d,s,f,NA,NA,75%,75%
sub4,2,B,282,1,795,n,r,s,2,1,75%,75%
sub4,2,B,283,1,832,n,r,s,2,2,75%,75%
sub4,2,B,284,1,915,d,s,s,2,3,75%,75%
sub4,2,B,285,1,866,d,s,s,2,4,75%,75%
sub4,2,B,286,1,1049,d,s,f,NA,NA,75%,75%
sub4,2,B,287,1,1310,d,s,f,NA,NA,75%,75%
sub4,2,B,288,1,761,d,s,f,NA,NA,75%,75%
sub4,2,B,289,1,1857,d,s,f,NA,NA,75%,75%
sub4,2,B,290,1,1336,d,s,f,NA,NA,75%,75%
sub4,2,B,291,1,893,d,s,f,NA,NA,75%,75%
sub4,2,B,292,1,1059,d,r,s,3,1,75%,75%
sub4,2,B,293,1,941,n,s,s,3,2,75%,75%
sub4,2,B,294,1,1241,d,r,s,3,3,75%,75%
sub4,2,B,295,1,1369,n,s,s,3,4,75%,75%
sub4,2,B,296,1,714,n,r,f,NA,NA,75%,75%
sub4,2,B,297,1,901,d,s,f,NA,NA,75%,75%
sub4,2,B,298,1,908,d,s,f,NA,NA,75%,75%
sub4,2,B,299,1,1023,d,s,f,NA,NA,75%,75%
sub4,2,B,300,1,830,d,s,f,NA,NA,75%,75%
sub4,2,B,301,1,738,n,r,s,2,1,75%,75%
sub4,2,B,302,1,797,n,r,s,2,2,75%,75%
sub4,2,B,303,1,993,d,s,s,2,3,75%,75%
sub4,2,B,304,1,742,d,s,s,2,4,75%,75%
sub4,2,B,305,1,632,n,r,f,NA,NA,75%,75%
sub4,2,B,306,1,923,d,s,f,NA,NA,75%,75%
sub4,2,B,307,1,890,d,s,f,NA,NA,75%,75%
sub4,2,B,308,1,789,d,s,f,NA,NA,75%,75%
sub4,2,B,309,1,763,d,s,f,NA,NA,75%,75%
sub4,2,B,310,1,753,d,s,f,NA,NA,75%,75%
sub4,2,B,311,1,737,n,r,s,2,1,75%,75%
sub4,2,B,312,1,790,n,r,s,2,2,75%,75%
sub4,2,B,313,1,747,d,s,s,2,3,75%,75%
sub4,2,B,314,1,1216,d,s,s,2,4,75%,75%
sub4,2,B,315,1,883,n,r,f,NA,NA,75%,75%
sub4,2,B,316,1,1679,d,s,f,NA,NA,75%,75%
sub4,2,B,317,1,921,d,s,f,NA,NA,75%,75%
sub4,2,B,318,1,934,d,s,f,NA,NA,75%,75%
sub4,2,B,319,1,866,d,s,f,NA,NA,75%,75%
sub4,2,B,320,1,681,d,s,f,NA,NA,75%,75%
sub4,3,D,322,1,1010,n,s,f,NA,NA,75%,25%
sub4,3,D,323,1,927,n,s,f,NA,NA,75%,25%
sub4,3,D,324,1,1042,n,s,f,NA,NA,75%,25%
sub4,3,D,325,1,722,n,s,f,NA,NA,75%,25%
sub4,3,D,326,1,742,n,r,s,2,1,75%,25%
sub4,3,D,327,1,1303,n,r,s,2,2,75%,25%
sub4,3,D,328,1,1481,d,s,s,2,3,75%,25%
sub4,3,D,329,1,1247,d,s,s,2,4,75%,25%
sub4,3,D,330,1,1005,d,r,f,NA,NA,75%,25%
sub4,3,D,331,1,1734,n,s,f,NA,NA,75%,25%
sub4,3,D,332,1,1252,n,s,f,NA,NA,75%,25%
sub4,3,D,333,1,1116,n,s,f,NA,NA,75%,25%
sub4,3,D,334,1,750,n,s,f,NA,NA,75%,25%
sub4,3,D,335,1,897,n,s,s,4,1,75%,25%
sub4,3,D,336,1,1126,n,s,s,4,2,75%,25%
sub4,3,D,337,1,903,d,r,s,4,3,75%,25%
sub4,3,D,338,1,1568,d,r,s,4,4,75%,25%
sub4,3,D,339,1,1020,n,s,f,NA,NA,75%,25%
sub4,3,D,340,1,862,n,s,f,NA,NA,75%,25%
sub4,3,D,341,1,1465,n,s,f,NA,NA,75%,25%
sub4,3,D,342,1,1053,n,s,f,NA,NA,75%,25%
sub4,3,D,343,1,901,n,s,f,NA,NA,75%,25%
sub4,3,D,344,1,802,n,s,f,NA,NA,75%,25%
sub4,3,D,345,1,870,n,s,s,4,1,75%,25%
sub4,3,D,346,1,968,n,s,s,4,2,75%,25%
sub4,3,D,347,1,1592,d,r,s,4,3,75%,25%
sub4,3,D,348,1,1534,d,r,s,4,4,75%,25%
sub4,3,D,349,1,1219,d,r,f,NA,NA,75%,25%
sub4,3,D,350,1,1067,n,s,f,NA,NA,75%,25%
sub4,3,D,351,1,758,n,s,f,NA,NA,75%,25%
sub4,3,D,352,1,2022,n,s,f,NA,NA,75%,25%
sub4,3,D,353,1,831,n,s,f,NA,NA,75%,25%
sub4,3,D,354,1,846,n,s,f,NA,NA,75%,25%
sub4,3,D,355,1,1000,n,s,s,4,1,75%,25%
sub4,3,D,356,1,774,n,s,s,4,2,75%,25%
sub4,3,D,357,1,888,d,r,s,4,3,75%,25%
sub4,3,D,358,1,985,d,r,s,4,4,75%,25%
sub4,3,D,359,1,795,d,r,f,NA,NA,75%,25%
sub4,3,D,360,1,1602,n,s,f,NA,NA,75%,25%
sub4,3,D,361,1,854,n,s,f,NA,NA,75%,25%
sub4,3,D,362,1,888,n,s,f,NA,NA,75%,25%
sub4,3,D,363,1,1211,n,s,f,NA,NA,75%,25%
sub4,3,D,364,1,995,n,s,f,NA,NA,75%,25%
sub4,3,D,365,1,1207,d,r,s,3,1,75%,25%
sub4,3,D,366,1,982,n,s,s,3,2,75%,25%
sub4,3,D,367,1,954,d,r,s,3,3,75%,25%
sub4,3,D,368,1,826,n,s,s,3,4,75%,25%
sub4,3,D,369,1,832,d,r,f,NA,NA,75%,25%
sub4,3,D,370,1,934,n,s,f,NA,NA,75%,25%
sub4,3,D,371,1,865,n,s,f,NA,NA,75%,25%
sub4,3,D,372,1,777,n,s,f,NA,NA,75%,25%
sub4,3,D,373,1,754,n,s,f,NA,NA,75%,25%
sub4,3,D,374,1,683,n,s,f,NA,NA,75%,25%
sub4,3,D,375,1,1205,d,s,s,1,1,75%,25%
sub4,3,D,376,1,977,n,r,s,1,2,75%,25%
sub4,3,D,377,1,1780,d,s,s,1,3,75%,25%
sub4,3,D,378,1,702,n,r,s,1,4,75%,25%
sub4,3,D,379,1,1040,d,r,f,NA,NA,75%,25%
sub4,3,D,380,1,810,n,s,f,NA,NA,75%,25%
sub4,3,D,381,1,957,n,s,f,NA,NA,75%,25%
sub4,3,D,382,1,1001,n,s,f,NA,NA,75%,25%
sub4,3,D,383,1,1034,n,s,f,NA,NA,75%,25%
sub4,3,D,384,1,933,d,r,s,3,1,75%,25%
sub4,3,D,385,1,1410,n,s,s,3,2,75%,25%
sub4,3,D,386,1,945,d,r,s,3,3,75%,25%
sub4,3,D,387,1,843,n,s,s,3,4,75%,25%
sub4,3,D,388,1,916,n,s,f,NA,NA,75%,25%
sub4,3,D,389,1,1081,n,s,f,NA,NA,75%,25%
sub4,3,D,390,1,1014,n,s,f,NA,NA,75%,25%
sub4,3,D,391,1,734,n,s,f,NA,NA,75%,25%
sub4,3,D,392,1,1091,n,s,f,NA,NA,75%,25%
sub4,3,D,393,1,930,n,s,f,NA,NA,75%,25%
sub4,3,D,394,1,1716,d,s,s,1,1,75%,25%
sub4,3,D,395,1,1106,n,r,s,1,2,75%,25%
sub4,3,D,396,1,2224,d,s,s,1,3,75%,25%
sub4,3,D,397,1,1105,n,r,s,1,4,75%,25%
sub4,3,D,398,1,771,n,s,f,NA,NA,75%,25%
sub4,3,D,399,1,1114,n,s,f,NA,NA,75%,25%
sub4,3,D,400,1,1339,n,s,f,NA,NA,75%,25%
sub4,3,D,401,1,1065,n,s,f,NA,NA,75%,25%
sub4,3,D,402,1,1442,n,s,f,NA,NA,75%,25%
sub4,3,D,403,1,1109,n,s,f,NA,NA,75%,25%
sub4,3,D,404,1,900,d,s,s,1,1,75%,25%
sub4,3,D,405,1,790,n,r,s,1,2,75%,25%
sub4,3,D,406,1,1230,d,s,s,1,3,75%,25%
sub4,3,D,407,1,843,n,r,s,1,4,75%,25%
sub4,3,D,408,1,701,n,s,f,NA,NA,75%,25%
sub4,3,D,409,1,1074,n,s,f,NA,NA,75%,25%
sub4,3,D,410,1,1423,n,s,f,NA,NA,75%,25%
sub4,3,D,411,1,1002,n,s,f,NA,NA,75%,25%
sub4,3,D,412,1,1103,n,s,f,NA,NA,75%,25%
sub4,3,D,413,1,1003,n,s,f,NA,NA,75%,25%
sub4,3,D,414,1,865,n,s,s,4,1,75%,25%
sub4,3,D,415,1,817,n,s,s,4,2,75%,25%
sub4,3,D,416,1,1161,d,r,s,4,3,75%,25%
sub4,3,D,417,1,1442,d,r,s,4,4,75%,25%
sub4,3,D,418,1,958,d,r,f,NA,NA,75%,25%
sub4,3,D,419,1,1055,n,s,f,NA,NA,75%,25%
sub4,3,D,420,1,714,n,s,f,NA,NA,75%,25%
sub4,3,D,421,1,951,n,s,f,NA,NA,75%,25%
sub4,3,D,422,1,1334,n,s,f,NA,NA,75%,25%
sub4,3,D,423,1,672,n,s,f,NA,NA,75%,25%
sub4,3,D,424,1,1423,d,s,s,1,1,75%,25%
sub4,3,D,425,1,870,n,r,s,1,2,75%,25%
sub4,3,D,426,1,965,d,s,s,1,3,75%,25%
sub4,3,D,427,1,1525,n,r,s,1,4,75%,25%
sub4,3,D,428,1,719,n,s,f,NA,NA,75%,25%
sub4,3,D,429,1,1022,n,s,f,NA,NA,75%,25%
sub4,3,D,430,1,685,n,s,f,NA,NA,75%,25%
sub4,3,D,431,1,1081,n,s,f,NA,NA,75%,25%
sub4,3,D,432,1,854,n,s,f,NA,NA,75%,25%
sub4,3,D,433,1,1325,d,r,s,3,1,75%,25%
sub4,3,D,434,1,1041,n,s,s,3,2,75%,25%
sub4,3,D,435,1,1114,d,r,s,3,3,75%,25%
sub4,3,D,436,1,1348,n,s,s,3,4,75%,25%
sub4,3,D,437,1,962,n,s,f,NA,NA,75%,25%
sub4,3,D,438,1,944,n,s,f,NA,NA,75%,25%
sub4,3,D,439,1,1300,n,s,f,NA,NA,75%,25%
sub4,3,D,440,1,1064,n,s,f,NA,NA,75%,25%
sub4,3,D,441,1,1234,n,s,f,NA,NA,75%,25%
sub4,3,D,442,1,968,n,s,f,NA,NA,75%,25%
sub4,3,D,443,1,798,n,r,s,2,1,75%,25%
sub4,3,D,444,1,797,n,r,s,2,2,75%,25%
sub4,3,D,445,1,1309,d,s,s,2,3,75%,25%
sub4,3,D,446,1,899,d,s,s,2,4,75%,25%
sub4,3,D,447,1,879,d,r,f,NA,NA,75%,25%
sub4,3,D,448,1,755,n,s,f,NA,NA,75%,25%
sub4,3,D,449,1,884,n,s,f,NA,NA,75%,25%
sub4,3,D,450,1,789,n,s,f,NA,NA,75%,25%
sub4,3,D,451,1,1317,n,s,f,NA,NA,75%,25%
sub4,3,D,452,1,1155,d,r,s,3,1,75%,25%
sub4,3,D,453,1,1389,n,s,s,3,2,75%,25%
sub4,3,D,454,1,1243,d,r,s,3,3,75%,25%
sub4,3,D,455,1,1031,n,s,s,3,4,75%,25%
sub4,3,D,456,1,951,n,s,f,NA,NA,75%,25%
sub4,3,D,457,1,913,n,s,f,NA,NA,75%,25%
sub4,3,D,458,1,912,n,s,f,NA,NA,75%,25%
sub4,3,D,459,1,966,n,s,f,NA,NA,75%,25%
sub4,3,D,460,1,664,n,s,f,NA,NA,75%,25%
sub4,3,D,461,1,1236,n,s,f,NA,NA,75%,25%
sub4,3,D,462,1,1036,n,r,s,2,1,75%,25%
sub4,3,D,463,1,862,n,r,s,2,2,75%,25%
sub4,3,D,464,1,1695,d,s,s,2,3,75%,25%
sub4,3,D,465,1,1399,d,s,s,2,4,75%,25%
sub4,3,D,466,1,2349,n,s,f,NA,NA,75%,25%
sub4,3,D,467,1,867,n,s,f,NA,NA,75%,25%
sub4,3,D,468,1,808,n,s,f,NA,NA,75%,25%
sub4,3,D,469,1,919,n,s,f,NA,NA,75%,25%
sub4,3,D,470,1,918,n,s,f,NA,NA,75%,25%
sub4,3,D,471,1,747,n,r,s,2,1,75%,25%
sub4,3,D,472,1,843,n,r,s,2,2,75%,25%
sub4,3,D,473,1,965,d,s,s,2,3,75%,25%
sub4,3,D,474,1,942,d,s,s,2,4,75%,25%
sub4,3,D,475,1,712,d,r,f,NA,NA,75%,25%
sub4,3,D,476,1,813,n,s,f,NA,NA,75%,25%
sub4,3,D,477,1,812,n,s,f,NA,NA,75%,25%
sub4,3,D,478,1,1287,n,s,f,NA,NA,75%,25%
sub4,3,D,479,1,767,n,s,f,NA,NA,75%,25%
sub4,3,D,480,1,1384,n,s,f,NA,NA,75%,25%
sub4,4,C,482,1,2014,n,r,f,NA,NA,25%,25%
sub4,4,C,483,1,1489,n,r,f,NA,NA,25%,25%
sub4,4,C,484,1,829,n,r,f,NA,NA,25%,25%
sub4,4,C,485,1,890,n,r,s,2,1,25%,25%
sub4,4,C,486,1,939,n,r,s,2,2,25%,25%
sub4,4,C,487,1,1291,d,s,s,2,3,25%,25%
sub4,4,C,488,1,804,d,s,s,2,4,25%,25%
sub4,4,C,489,1,630,n,r,f,NA,NA,25%,25%
sub4,4,C,490,1,1162,n,r,f,NA,NA,25%,25%
sub4,4,C,491,1,757,n,r,f,NA,NA,25%,25%
sub4,4,C,492,1,785,n,r,f,NA,NA,25%,25%
sub4,4,C,493,1,740,n,r,f,NA,NA,25%,25%
sub4,4,C,494,1,868,n,r,f,NA,NA,25%,25%
sub4,4,C,495,1,1051,n,s,s,4,1,25%,25%
sub4,4,C,496,1,1195,n,s,s,4,2,25%,25%
sub4,4,C,497,1,1140,d,r,s,4,3,25%,25%
sub4,4,C,498,1,628,d,r,s,4,4,25%,25%
sub4,4,C,499,1,808,n,r,f,NA,NA,25%,25%
sub4,4,C,500,1,889,n,r,f,NA,NA,25%,25%
sub4,4,C,501,1,890,n,r,f,NA,NA,25%,25%
sub4,4,C,502,1,721,n,r,f,NA,NA,25%,25%
sub4,4,C,503,1,1106,n,r,f,NA,NA,25%,25%
sub4,4,C,504,1,714,n,r,f,NA,NA,25%,25%
sub4,4,C,505,1,1402,n,s,s,4,1,25%,25%
sub4,4,C,506,1,669,n,s,s,4,2,25%,25%
sub4,4,C,507,1,797,d,r,s,4,3,25%,25%
sub4,4,C,508,1,768,d,r,s,4,4,25%,25%
sub4,4,C,509,1,867,n,r,f,NA,NA,25%,25%
sub4,4,C,510,1,867,n,r,f,NA,NA,25%,25%
sub4,4,C,511,1,847,n,r,f,NA,NA,25%,25%
sub4,4,C,512,1,716,n,r,f,NA,NA,25%,25%
sub4,4,C,513,1,877,n,r,f,NA,NA,25%,25%
sub4,4,C,514,1,774,n,r,f,NA,NA,25%,25%
sub4,4,C,515,1,1006,n,s,s,4,1,25%,25%
sub4,4,C,516,1,789,n,s,s,4,2,25%,25%
sub4,4,C,517,1,1173,d,r,s,4,3,25%,25%
sub4,4,C,518,1,982,d,r,s,4,4,25%,25%
sub4,4,C,519,1,1236,d,s,f,NA,NA,25%,25%
sub4,4,C,520,1,1433,n,r,f,NA,NA,25%,25%
sub4,4,C,521,1,956,n,r,f,NA,NA,25%,25%
sub4,4,C,522,1,1076,n,r,f,NA,NA,25%,25%
sub4,4,C,523,1,1091,n,r,f,NA,NA,25%,25%
sub4,4,C,524,1,895,n,r,f,NA,NA,25%,25%
sub4,4,C,525,1,879,d,r,s,3,1,25%,25%
sub4,4,C,526,1,932,n,s,s,3,2,25%,25%
sub4,4,C,527,1,1006,d,r,s,3,3,25%,25%
sub4,4,C,528,1,880,n,s,s,3,4,25%,25%
sub4,4,C,529,1,938,n,r,f,NA,NA,25%,25%
sub4,4,C,530,1,767,n,r,f,NA,NA,25%,25%
sub4,4,C,531,1,819,n,r,f,NA,NA,25%,25%
sub4,4,C,532,1,732,n,r,f,NA,NA,25%,25%
sub4,4,C,533,1,859,n,r,f,NA,NA,25%,25%
sub4,4,C,534,1,684,d,s,s,1,1,25%,25%
sub4,4,C,535,1,1237,n,r,s,1,2,25%,25%
sub4,4,C,536,1,802,d,s,s,1,3,25%,25%
sub4,4,C,537,1,1472,n,r,s,1,4,25%,25%
sub4,4,C,538,1,912,n,r,f,NA,NA,25%,25%
sub4,4,C,539,1,810,n,r,f,NA,NA,25%,25%
sub4,4,C,540,1,988,n,r,f,NA,NA,25%,25%
sub4,4,C,541,1,927,n,r,f,NA,NA,25%,25%
sub4,4,C,542,1,948,n,r,f,NA,NA,25%,25%
sub4,4,C,543,1,1054,n,r,f,NA,NA,25%,25%
sub4,4,C,544,1,904,d,r,s,3,1,25%,25%
sub4,4,C,545,1,983,n,s,s,3,2,25%,25%
sub4,4,C,546,1,1207,d,r,s,3,3,25%,25%
sub4,4,C,547,1,1064,n,s,s,3,4,25%,25%
sub4,4,C,548,1,1025,d,s,f,NA,NA,25%,25%
sub4,4,C,549,1,1202,n,r,f,NA,NA,25%,25%
sub4,4,C,550,1,882,n,r,f,NA,NA,25%,25%
sub4,4,C,551,1,744,n,r,f,NA,NA,25%,25%
sub4,4,C,552,1,732,n,r,f,NA,NA,25%,25%
sub4,4,C,553,1,655,n,r,f,NA,NA,25%,25%
sub4,4,C,554,1,930,d,s,s,1,1,25%,25%
sub4,4,C,555,1,731,n,r,s,1,2,25%,25%
sub4,4,C,556,1,1458,d,s,s,1,3,25%,25%
sub4,4,C,557,1,831,n,r,s,1,4,25%,25%
sub4,4,C,558,1,979,d,s,f,NA,NA,25%,25%
sub4,4,C,559,1,691,n,r,f,NA,NA,25%,25%
sub4,4,C,560,1,713,n,r,f,NA,NA,25%,25%
sub4,4,C,561,1,884,n,r,f,NA,NA,25%,25%
sub4,4,C,562,1,1712,d,s,s,1,1,25%,25%
sub4,4,C,563,1,940,n,r,s,1,2,25%,25%
sub4,4,C,564,1,978,d,s,s,1,3,25%,25%
sub4,4,C,565,1,686,n,r,s,1,4,25%,25%
sub4,4,C,566,1,853,n,r,f,NA,NA,25%,25%
sub4,4,C,567,1,673,n,r,f,NA,NA,25%,25%
sub4,4,C,568,1,1608,n,r,f,NA,NA,25%,25%
sub4,4,C,569,1,803,n,r,f,NA,NA,25%,25%
sub4,4,C,570,1,1032,n,r,f,NA,NA,25%,25%
sub4,4,C,571,1,1128,n,r,f,NA,NA,25%,25%
sub4,4,C,572,1,858,n,s,s,4,1,25%,25%
sub4,4,C,573,1,947,n,s,s,4,2,25%,25%
sub4,4,C,574,1,952,d,r,s,4,3,25%,25%
sub4,4,C,575,1,746,d,r,s,4,4,25%,25%
sub4,4,C,576,1,1510,d,s,f,NA,NA,25%,25%
sub4,4,C,577,1,1087,n,r,f,NA,NA,25%,25%
sub4,4,C,578,1,792,n,r,f,NA,NA,25%,25%
sub4,4,C,579,1,822,n,r,f,NA,NA,25%,25%
sub4,4,C,580,1,1309,n,r,f,NA,NA,25%,25%
sub4,4,C,581,1,865,n,r,f,NA,NA,25%,25%
sub4,4,C,582,1,897,d,s,s,1,1,25%,25%
sub4,4,C,583,1,634,n,r,s,1,2,25%,25%
sub4,4,C,584,1,1245,d,s,s,1,3,25%,25%
sub4,4,C,585,1,608,n,r,s,1,4,25%,25%
sub4,4,C,586,1,1163,d,s,f,NA,NA,25%,25%
sub4,4,C,587,1,985,n,r,f,NA,NA,25%,25%
sub4,4,C,588,1,830,n,r,f,NA,NA,25%,25%
sub4,4,C,589,1,763,n,r,f,NA,NA,25%,25%
sub4,4,C,590,1,1803,n,r,f,NA,NA,25%,25%
sub4,4,C,591,1,963,n,r,f,NA,NA,25%,25%
sub4,4,C,592,1,1068,d,r,s,3,1,25%,25%
sub4,4,C,593,1,974,n,s,s,3,2,25%,25%
sub4,4,C,594,1,1242,d,r,s,3,3,25%,25%
sub4,4,C,595,1,1034,n,s,s,3,4,25%,25%
sub4,4,C,596,1,912,n,r,f,NA,NA,25%,25%
sub4,4,C,597,1,928,n,r,f,NA,NA,25%,25%
sub4,4,C,598,1,921,n,r,f,NA,NA,25%,25%
sub4,4,C,599,1,740,n,r,f,NA,NA,25%,25%
sub4,4,C,600,1,762,n,r,f,NA,NA,25%,25%
sub4,4,C,601,1,1042,n,r,f,NA,NA,25%,25%
sub4,4,C,602,1,843,n,r,s,2,1,25%,25%
sub4,4,C,603,1,733,n,r,s,2,2,25%,25%
sub4,4,C,604,1,1513,d,s,s,2,3,25%,25%
sub4,4,C,605,1,868,d,s,s,2,4,25%,25%
sub4,4,C,606,1,861,n,r,f,NA,NA,25%,25%
sub4,4,C,607,1,808,n,r,f,NA,NA,25%,25%
sub4,4,C,608,1,883,n,r,f,NA,NA,25%,25%
sub4,4,C,609,1,671,n,r,f,NA,NA,25%,25%
sub4,4,C,610,1,762,n,r,f,NA,NA,25%,25%
sub4,4,C,611,1,928,d,r,s,3,1,25%,25%
sub4,4,C,612,1,1186,n,s,s,3,2,25%,25%
sub4,4,C,613,1,894,d,r,s,3,3,25%,25%
sub4,4,C,614,1,1253,n,s,s,3,4,25%,25%
sub4,4,C,615,1,847,d,s,f,NA,NA,25%,25%
sub4,4,C,616,1,954,n,r,f,NA,NA,25%,25%
sub4,4,C,617,1,816,n,r,f,NA,NA,25%,25%
sub4,4,C,618,1,1046,n,r,f,NA,NA,25%,25%
sub4,4,C,619,1,688,n,r,f,NA,NA,25%,25%
sub4,4,C,620,1,1013,n,r,f,NA,NA,25%,25%
sub4,4,C,621,1,1048,n,r,s,2,1,25%,25%
sub4,4,C,622,1,763,n,r,s,2,2,25%,25%
sub4,4,C,623,1,1025,d,s,s,2,3,25%,25%
sub4,4,C,624,1,967,d,s,s,2,4,25%,25%
sub4,4,C,625,1,1051,d,s,f,NA,NA,25%,25%
sub4,4,C,626,1,731,n,r,f,NA,NA,25%,25%
sub4,4,C,627,1,1160,n,r,f,NA,NA,25%,25%
sub4,4,C,628,1,960,n,r,f,NA,NA,25%,25%
sub4,4,C,629,1,1031,n,r,f,NA,NA,25%,25%
sub4,4,C,630,1,837,n,r,f,NA,NA,25%,25%
sub4,4,C,631,1,777,n,r,s,2,1,25%,25%
sub4,4,C,632,1,800,n,r,s,2,2,25%,25%
sub4,4,C,633,1,962,d,s,s,2,3,25%,25%
sub4,4,C,634,1,1222,d,s,s,2,4,25%,25%
sub4,4,C,635,1,913,d,s,f,NA,NA,25%,25%
sub4,4,C,636,1,862,n,r,f,NA,NA,25%,25%
sub4,4,C,637,1,747,n,r,f,NA,NA,25%,25%
sub4,4,C,638,1,713,n,r,f,NA,NA,25%,25%
sub4,4,C,639,1,921,n,r,f,NA,NA,25%,25%
sub4,4,C,640,1,624,n,r,f,NA,NA,25%,25%
sub5,1,C,2,1,774,n,r,f,NA,NA,25%,25%
sub5,1,C,3,1,1085,n,r,f,NA,NA,25%,25%
sub5,1,C,4,1,875,n,r,f,NA,NA,25%,25%
sub5,1,C,5,1,744,n,r,f,NA,NA,25%,25%
sub5,1,C,6,1,681,n,r,s,2,1,25%,25%
sub5,1,C,7,1,842,n,r,s,2,2,25%,25%
sub5,1,C,8,1,1756,d,s,s,2,3,25%,25%
sub5,1,C,9,1,1275,d,s,s,2,4,25%,25%
sub5,1,C,10,1,847,n,r,f,NA,NA,25%,25%
sub5,1,C,11,1,948,n,r,f,NA,NA,25%,25%
sub5,1,C,12,1,871,n,r,f,NA,NA,25%,25%
sub5,1,C,13,1,1042,n,r,f,NA,NA,25%,25%
sub5,1,C,14,1,1495,d,r,s,3,1,25%,25%
sub5,1,C,15,1,1563,n,s,s,3,2,25%,25%
sub5,1,C,16,1,1785,d,r,s,3,3,25%,25%
sub5,1,C,17,1,945,n,s,s,3,4,25%,25%
sub5,1,C,18,1,904,n,r,f,NA,NA,25%,25%
sub5,1,C,19,1,848,n,r,f,NA,NA,25%,25%
sub5,1,C,20,1,997,n,r,f,NA,NA,25%,25%
sub5,1,C,21,1,785,n,r,f,NA,NA,25%,25%
sub5,1,C,22,1,756,n,r,f,NA,NA,25%,25%
sub5,1,C,23,1,812,n,r,f,NA,NA,25%,25%
sub5,1,C,24,1,902,d,r,s,3,1,25%,25%
sub5,1,C,25,1,893,n,s,s,3,2,25%,25%
sub5,1,C,26,0,637,d,r,s,3,3,25%,25%
sub5,1,C,27,1,1439,n,s,s,3,4,25%,25%
sub5,1,C,28,1,1269,d,s,f,NA,NA,25%,25%
sub5,1,C,29,1,1506,n,r,f,NA,NA,25%,25%
sub5,1,C,30,1,1019,n,r,f,NA,NA,25%,25%
sub5,1,C,31,1,1100,n,r,f,NA,NA,25%,25%
sub5,1,C,32,1,810,n,r,f,NA,NA,25%,25%
sub5,1,C,33,1,818,n,r,f,NA,NA,25%,25%
sub5,1,C,34,1,985,d,r,s,3,1,25%,25%
sub5,1,C,35,1,850,n,s,s,3,2,25%,25%
sub5,1,C,36,1,1391,d,r,s,3,3,25%,25%
sub5,1,C,37,1,2073,n,s,s,3,4,25%,25%
sub5,1,C,38,1,1334,d,s,f,NA,NA,25%,25%
sub5,1,C,39,1,1158,n,r,f,NA,NA,25%,25%
sub5,1,C,40,1,846,n,r,f,NA,NA,25%,25%
sub5,1,C,41,1,1144,n,r,f,NA,NA,25%,25%
sub5,1,C,42,1,1803,n,r,f,NA,NA,25%,25%
sub5,1,C,43,1,907,n,r,f,NA,NA,25%,25%
sub5,1,C,44,1,1321,n,r,s,2,1,25%,25%
sub5,1,C,45,1,956,n,r,s,2,2,25%,25%
