subject,block,blockType,trialCount,acc,RT,distractorType,taskSequence,sequenceType,sequenceKind,sequencePosition,switchProp,distractorProp
sub1,1,C,7,1,1288,n,s,s,4,2,25%,25%
sub1,1,C,8,1,1882,d,r,s,4,3,25%,25%
sub1,1,C,16,1,1256,n,r,s,1,2,25%,25%
sub1,1,C,17,1,1437,d,s,s,1,3,25%,25%
sub1,1,C,18,1,953,n,r,s,1,4,25%,25%
sub1,1,C,26,1,1255,n,s,s,3,2,25%,25%
sub1,1,C,27,1,1535,d,r,s,3,3,25%,25%
sub1,1,C,28,1,1343,n,s,s,3,4,25%,25%
sub1,1,C,36,1,888,n,r,s,2,2,25%,25%
sub1,1,C,37,1,1242,d,s,s,2,3,25%,25%
sub1,1,C,38,1,1964,d,s,s,2,4,25%,25%
sub1,1,C,46,1,1054,n,s,s,4,2,25%,25%
sub1,1,C,47,1,1114,d,r,s,4,3,25%,25%
sub1,1,C,48,1,1622,d,r,s,4,4,25%,25%
sub1,1,C,55,1,741,n,r,s,1,2,25%,25%
sub1,1,C,57,1,781,n,r,s,1,4,25%,25%
sub1,1,C,65,1,813,n,s,s,4,2,25%,25%
sub1,1,C,66,1,984,d,r,s,4,3,25%,25%
sub1,1,C,67,1,939,d,r,s,4,4,25%,25%
sub1,1,C,75,1,1197,n,s,s,3,2,25%,25%
sub1,1,C,76,1,1015,d,r,s,3,3,25%,25%
sub1,1,C,85,1,760,n,r,s,1,2,25%,25%
sub1,1,C,86,1,906,d,s,s,1,3,25%,25%
sub1,1,C,87,1,659,n,r,s,1,4,25%,25%
sub1,1,C,95,1,865,n,r,s,1,2,25%,25%
sub1,1,C,96,1,924,d,s,s,1,3,25%,25%
sub1,1,C,97,1,791,n,r,s,1,4,25%,25%
sub1,1,C,105,1,918,n,s,s,4,2,25%,25%
sub1,1,C,106,1,1772,d,r,s,4,3,25%,25%
sub1,1,C,107,1,896,d,r,s,4,4,25%,25%
sub1,1,C,115,1,708,n,r,s,2,2,25%,25%
sub1,1,C,116,1,1132,d,s,s,2,3,25%,25%
sub1,1,C,117,1,1591,d,s,s,2,4,25%,25%
sub1,1,C,124,1,1208,n,r,s,2,2,25%,25%
sub1,1,C,125,1,1205,d,s,s,2,3,25%,25%
sub1,1,C,126,1,1137,d,s,s,2,4,25%,25%
sub1,1,C,133,1,787,n,r,s,2,2,25%,25%
sub1,1,C,135,1,1608,d,s,s,2,4,25%,25%
sub1,1,C,144,1,1656,d,r,s,3,3,25%,25%
sub1,1,C,145,1,882,n,s,s,3,4,25%,25%
sub1,1,C,153,1,978,n,s,s,3,2,25%,25%
sub1,1,C,154,1,1172,d,r,s,3,3,25%,25%
sub1,1,C,155,1,1100,n,s,s,3,4,25%,25%
sub1,2,D,167,1,776,n,s,s,4,2,75%,25%
sub1,2,D,168,1,1059,d,r,s,4,3,75%,25%
sub1,2,D,169,1,982,d,r,s,4,4,75%,25%
sub1,2,D,177,1,855,n,r,s,1,2,75%,25%
sub1,2,D,178,1,1099,d,s,s,1,3,75%,25%
sub1,2,D,179,1,981,n,r,s,1,4,75%,25%
sub1,2,D,187,1,799,n,s,s,3,2,75%,25%
sub1,2,D,188,1,870,d,r,s,3,3,75%,25%
sub1,2,D,189,1,795,n,s,s,3,4,75%,25%
sub1,2,D,197,1,1172,n,r,s,2,2,75%,25%
sub1,2,D,198,1,1337,d,s,s,2,3,75%,25%
sub1,2,D,199,1,988,d,s,s,2,4,75%,25%
sub1,2,D,207,1,981,n,s,s,4,2,75%,25%
sub1,2,D,208,1,968,d,r,s,4,3,75%,25%
sub1,2,D,209,1,1732,d,r,s,4,4,75%,25%
sub1,2,D,217,1,1377,n,r,s,1,2,75%,25%
sub1,2,D,218,1,946,d,s,s,1,3,75%,25%
sub1,2,D,219,1,868,n,r,s,1,4,75%,25%
sub1,2,D,227,1,720,n,s,s,4,2,75%,25%
sub1,2,D,228,1,922,d,r,s,4,3,75%,25%
sub1,2,D,229,1,1557,d,r,s,4,4,75%,25%
sub1,2,D,236,1,877,n,s,s,3,2,75%,25%
sub1,2,D,237,1,910,d,r,s,3,3,75%,25%
sub1,2,D,238,1,753,n,s,s,3,4,75%,25%
sub1,2,D,245,1,799,n,r,s,1,2,75%,25%
sub1,2,D,246,1,866,d,s,s,1,3,75%,25%
sub1,2,D,247,1,972,n,r,s,1,4,75%,25%
sub1,2,D,253,1,658,n,r,s,1,2,75%,25%
sub1,2,D,254,1,990,d,s,s,1,3,75%,25%
sub1,2,D,255,1,836,n,r,s,1,4,75%,25%
sub1,2,D,263,1,899,n,s,s,4,2,75%,25%
sub1,2,D,264,1,859,d,r,s,4,3,75%,25%
sub1,2,D,265,1,1031,d,r,s,4,4,75%,25%
sub1,2,D,273,1,809,n,r,s,2,2,75%,25%
sub1,2,D,274,1,1220,d,s,s,2,3,75%,25%
sub1,2,D,275,1,977,d,s,s,2,4,75%,25%
sub1,2,D,283,1,831,n,r,s,2,2,75%,25%
sub1,2,D,284,1,860,d,s,s,2,3,75%,25%
sub1,2,D,285,1,1454,d,s,s,2,4,75%,25%
sub1,2,D,293,1,626,n,r,s,2,2,75%,25%
sub1,2,D,294,1,1296,d,s,s,2,3,75%,25%
sub1,2,D,303,1,752,n,s,s,3,2,75%,25%
sub1,2,D,304,1,895,d,r,s,3,3,75%,25%
sub1,2,D,305,1,810,n,s,s,3,4,75%,25%
sub1,2,D,313,1,717,n,s,s,3,2,75%,25%
sub1,2,D,314,1,736,d,r,s,3,3,75%,25%
sub1,2,D,315,1,1301,n,s,s,3,4,75%,25%
sub1,3,B,326,1,1050,n,s,s,4,2,75%,75%
sub1,3,B,327,1,1131,d,r,s,4,3,75%,75%
sub1,3,B,328,1,834,d,r,s,4,4,75%,75%
sub1,3,B,336,1,868,n,r,s,1,2,75%,75%
sub1,3,B,337,1,1014,d,s,s,1,3,75%,75%
sub1,3,B,338,1,687,n,r,s,1,4,75%,75%
sub1,3,B,346,1,788,n,s,s,3,2,75%,75%
sub1,3,B,347,1,889,d,r,s,3,3,75%,75%
sub1,3,B,348,1,830,n,s,s,3,4,75%,75%
sub1,3,B,356,1,679,n,r,s,2,2,75%,75%
sub1,3,B,357,1,939,d,s,s,2,3,75%,75%
sub1,3,B,358,1,1362,d,s,s,2,4,75%,75%
sub1,3,B,366,1,857,n,s,s,4,2,75%,75%
sub1,3,B,367,1,985,d,r,s,4,3,75%,75%
sub1,3,B,368,1,970,d,r,s,4,4,75%,75%
sub1,3,B,376,1,1355,n,r,s,1,2,75%,75%
sub1,3,B,377,1,1068,d,s,s,1,3,75%,75%
sub1,3,B,378,1,692,n,r,s,1,4,75%,75%
sub1,3,B,385,1,959,n,s,s,4,2,75%,75%
sub1,3,B,386,1,867,d,r,s,4,3,75%,75%
sub1,3,B,387,1,856,d,r,s,4,4,75%,75%
sub1,3,B,395,1,843,n,s,s,3,2,75%,75%
sub1,3,B,396,1,932,d,r,s,3,3,75%,75%
sub1,3,B,397,1,1262,n,s,s,3,4,75%,75%
sub1,3,B,405,1,894,n,r,s,1,2,75%,75%
sub1,3,B,406,1,1029,d,s,s,1,3,75%,75%
sub1,3,B,407,1,950,n,r,s,1,4,75%,75%
sub1,3,B,415,1,790,n,r,s,1,2,75%,75%
sub1,3,B,416,1,1218,d,s,s,1,3,75%,75%
sub1,3,B,417,1,677,n,r,s,1,4,75%,75%
sub1,3,B,425,1,705,n,s,s,4,2,75%,75%
sub1,3,B,426,1,939,d,r,s,4,3,75%,75%
sub1,3,B,427,1,959,d,r,s,4,4,75%,75%
sub1,3,B,435,1,738,n,r,s,2,2,75%,75%
sub1,3,B,436,1,929,d,s,s,2,3,75%,75%
sub1,3,B,437,1,778,d,s,s,2,4,75%,75%
sub1,3,B,444,1,731,n,r,s,2,2,75%,75%
sub1,3,B,445,1,714,d,s,s,2,3,75%,75%
sub1,3,B,446,1,762,d,s,s,2,4,75%,75%
sub1,3,B,454,1,929,n,r,s,2,2,75%,75%
sub1,3,B,455,1,1639,d,s,s,2,3,75%,75%
sub1,3,B,456,1,1533,d,s,s,2,4,75%,75%
sub1,3,B,464,1,1048,n,s,s,3,2,75%,75%
sub1,3,B,465,1,880,d,r,s,3,3,75%,75%
sub1,3,B,466,1,757,n,s,s,3,4,75%,75%
sub1,3,B,472,1,1514,n,s,s,3,2,75%,75%
sub1,3,B,473,1,1361,d,r,s,3,3,75%,75%
sub1,3,B,474,1,1413,n,s,s,3,4,75%,75%
sub1,4,A,487,1,908,n,s,s,4,2,25%,75%
sub1,4,A,488,1,735,d,r,s,4,3,25%,75%
sub1,4,A,489,1,858,d,r,s,4,4,25%,75%
sub1,4,A,497,1,1059,n,r,s,1,2,25%,75%
sub1,4,A,498,1,811,d,s,s,1,3,25%,75%
sub1,4,A,499,1,733,n,r,s,1,4,25%,75%
sub1,4,A,507,1,1282,n,s,s,3,2,25%,75%
sub1,4,A,509,1,1106,n,s,s,3,4,25%,75%
sub1,4,A,517,1,708,n,r,s,2,2,25%,75%
sub1,4,A,518,1,1768,d,s,s,2,3,25%,75%
sub1,4,A,519,1,753,d,s,s,2,4,25%,75%
sub1,4,A,526,1,749,n,s,s,4,2,25%,75%
sub1,4,A,527,1,870,d,r,s,4,3,25%,75%
sub1,4,A,528,1,878,d,r,s,4,4,25%,75%
sub1,4,A,536,1,1067,n,r,s,1,2,25%,75%
sub1,4,A,537,1,1145,d,s,s,1,3,25%,75%
sub1,4,A,538,1,770,n,r,s,1,4,25%,75%
sub1,4,A,546,1,822,n,s,s,4,2,25%,75%
sub1,4,A,547,1,780,d,r,s,4,3,25%,75%
sub1,4,A,548,1,718,d,r,s,4,4,25%,75%
sub1,4,A,556,1,932,n,s,s,3,2,25%,75%
sub1,4,A,557,1,811,d,r,s,3,3,25%,75%
sub1,4,A,564,1,708,n,r,s,1,2,25%,75%
sub1,4,A,565,1,1164,d,s,s,1,3,25%,75%
sub1,4,A,574,1,704,n,r,s,1,2,25%,75%
sub1,4,A,575,1,805,d,s,s,1,3,25%,75%
sub1,4,A,576,1,1260,n,r,s,1,4,25%,75%
sub1,4,A,583,1,752,n,s,s,4,2,25%,75%
sub1,4,A,584,1,1085,d,r,s,4,3,25%,75%
sub1,4,A,585,1,773,d,r,s,4,4,25%,75%
sub1,4,A,593,1,764,n,r,s,2,2,25%,75%
sub1,4,A,594,1,1147,d,s,s,2,3,25%,75%
sub1,4,A,595,1,742,d,s,s,2,4,25%,75%
sub1,4,A,603,1,712,n,r,s,2,2,25%,75%
sub1,4,A,604,1,1133,d,s,s,2,3,25%,75%
sub1,4,A,605,1,964,d,s,s,2,4,25%,75%
sub1,4,A,613,1,776,n,r,s,2,2,25%,75%
sub1,4,A,614,1,1101,d,s,s,2,3,25%,75%
sub1,4,A,622,1,1055,n,s,s,3,2,25%,75%
sub1,4,A,623,1,765,d,r,s,3,3,25%,75%
sub1,4,A,624,1,844,n,s,s,3,4,25%,75%
sub1,4,A,632,1,848,n,s,s,3,2,25%,75%
sub1,4,A,633,1,931,d,r,s,3,3,25%,75%
sub1,4,A,634,1,712,n,s,s,3,4,25%,75%
sub2,1,A,6,1,875,n,r,s,2,2,25%,75%
sub2,1,A,7,1,1516,d,s,s,2,3,25%,75%
sub2,1,A,8,1,1468,d,s,s,2,4,25%,75%
sub2,1,A,16,1,985,n,r,s,2,2,25%,75%
sub2,1,A,17,1,1155,d,s,s,2,3,25%,75%
sub2,1,A,18,1,1063,d,s,s,2,4,25%,75%
sub2,1,A,25,1,1046,n,s,s,4,2,25%,75%
sub2,1,A,26,1,968,d,r,s,4,3,25%,75%
sub2,1,A,27,1,904,d,r,s,4,4,25%,75%
sub2,1,A,35,1,1204,n,s,s,4,2,25%,75%
sub2,1,A,36,1,906,d,r,s,4,3,25%,75%
sub2,1,A,37,1,1172,d,r,s,4,4,25%,75%
sub2,1,A,45,1,1781,n,r,s,1,2,25%,75%
sub2,1,A,46,1,1124,d,s,s,1,3,25%,75%
sub2,1,A,47,1,899,n,r,s,1,4,25%,75%
sub2,1,A,54,1,1265,n,s,s,3,2,25%,75%
sub2,1,A,64,1,781,n,s,s,4,2,25%,75%
sub2,1,A,65,1,828,d,r,s,4,3,25%,75%
sub2,1,A,66,1,875,d,r,s,4,4,25%,75%
sub2,1,A,74,1,1500,n,s,s,3,2,25%,75%
sub2,1,A,75,1,1046,d,r,s,3,3,25%,75%
sub2,1,A,76,1,984,n,s,s,3,4,25%,75%
sub2,1,A,85,1,1359,d,r,s,3,3,25%,75%
sub2,1,A,86,1,1000,n,s,s,3,4,25%,75%
sub2,1,A,93,1,749,n,r,s,2,2,25%,75%
sub2,1,A,94,1,1390,d,s,s,2,3,25%,75%
sub2,1,A,95,1,1047,d,s,s,2,4,25%,75%
sub2,1,A,103,1,1234,n,s,s,4,2,25%,75%
sub2,1,A,104,1,813,d,r,s,4,3,25%,75%
sub2,1,A,105,1,735,d,r,s,4,4,25%,75%
sub2,1,A,113,1,1218,n,r,s,1,2,25%,75%
sub2,1,A,114,1,1829,d,s,s,1,3,25%,75%
sub2,1,A,115,1,969,n,r,s,1,4,25%,75%
sub2,1,A,123,1,1406,n,r,s,1,2,25%,75%
sub2,1,A,124,1,1359,d,s,s,1,3,25%,75%
sub2,1,A,125,1,1062,n,r,s,1,4,25%,75%
sub2,1,A,133,1,1344,n,r,s,1,2,25%,75%
sub2,1,A,134,1,1078,d,s,s,1,3,25%,75%
sub2,1,A,135,1,1107,n,r,s,1,4,25%,75%
sub2,1,A,142,1,1516,n,s,s,3,2,25%,75%
sub2,1,A,143,1,1781,d,r,s,3,3,25%,75%
sub2,1,A,144,1,1188,n,s,s,3,4,25%,75%
sub2,1,A,152,1,984,n,r,s,2,2,25%,75%
sub2,1,A,153,1,1515,d,s,s,2,3,25%,75%
sub2,1,A,154,1,1156,d,s,s,2,4,25%,75%
sub2,2,B,167,1,1062,n,r,s,2,2,75%,75%
sub2,2,B,168,1,1219,d,s,s,2,3,75%,75%
sub2,2,B,169,1,1516,d,s,s,2,4,75%,75%
sub2,2,B,177,1,969,n,r,s,2,2,75%,75%
sub2,2,B,178,1,875,d,s,s,2,3,75%,75%
sub2,2,B,179,1,1672,d,s,s,2,4,75%,75%
sub2,2,B,188,1,1235,d,r,s,4,3,75%,75%
sub2,2,B,197,1,1219,n,s,s,4,2,75%,75%
sub2,2,B,198,1,906,d,r,s,4,3,75%,75%
sub2,2,B,199,1,953,d,r,s,4,4,75%,75%
sub2,2,B,206,1,1501,n,r,s,1,2,75%,75%
sub2,2,B,207,1,1406,d,s,s,1,3,75%,75%
sub2,2,B,208,1,828,n,r,s,1,4,75%,75%
sub2,2,B,216,1,1422,n,s,s,3,2,75%,75%
sub2,2,B,217,1,860,d,r,s,3,3,75%,75%
sub2,2,B,218,1,1407,n,s,s,3,4,75%,75%
sub2,2,B,226,1,952,n,s,s,4,2,75%,75%
sub2,2,B,227,1,1187,d,r,s,4,3,75%,75%
sub2,2,B,228,1,984,d,r,s,4,4,75%,75%
sub2,2,B,236,1,1469,n,s,s,3,2,75%,75%
sub2,2,B,237,1,953,d,r,s,3,3,75%,75%
sub2,2,B,238,1,969,n,s,s,3,4,75%,75%
sub2,2,B,244,1,1375,n,s,s,3,2,75%,75%
sub2,2,B,245,1,859,d,r,s,3,3,75%,75%
sub2,2,B,246,1,1390,n,s,s,3,4,75%,75%
sub2,2,B,254,1,1015,n,r,s,2,2,75%,75%
sub2,2,B,255,1,875,d,s,s,2,3,75%,75%
sub2,2,B,256,1,1250,d,s,s,2,4,75%,75%
sub2,2,B,264,1,969,n,s,s,4,2,75%,75%
sub2,2,B,265,1,1296,d,r,s,4,3,75%,75%
sub2,2,B,266,1,1000,d,r,s,4,4,75%,75%
sub2,2,B,275,1,1672,d,s,s,1,3,75%,75%
sub2,2,B,276,1,1265,n,r,s,1,4,75%,75%
sub2,2,B,284,1,1015,n,r,s,1,2,75%,75%
sub2,2,B,285,1,1110,d,s,s,1,3,75%,75%
sub2,2,B,286,1,828,n,r,s,1,4,75%,75%
sub2,2,B,293,1,921,n,r,s,1,2,75%,75%
sub2,2,B,294,1,926,d,s,s,1,3,75%,75%
sub2,2,B,295,1,1031,n,r,s,1,4,75%,75%
sub2,2,B,303,1,844,d,r,s,3,3,75%,75%
sub2,2,B,304,1,1093,n,s,s,3,4,75%,75%
sub2,2,B,313,1,1375,d,s,s,2,3,75%,75%
sub2,2,B,314,1,1344,d,s,s,2,4,75%,75%
sub2,3,D,327,1,1266,n,r,s,2,2,75%,25%
sub2,3,D,328,1,1141,d,s,s,2,3,75%,25%
sub2,3,D,329,1,953,d,s,s,2,4,75%,25%
sub2,3,D,337,1,1203,n,r,s,2,2,75%,25%
sub2,3,D,338,1,1343,d,s,s,2,3,75%,25%
sub2,3,D,339,1,938,d,s,s,2,4,75%,25%
sub2,3,D,345,1,1375,n,s,s,4,2,75%,25%
sub2,3,D,346,1,1203,d,r,s,4,3,75%,25%
sub2,3,D,347,1,1609,d,r,s,4,4,75%,25%
sub2,3,D,355,1,1282,n,s,s,4,2,75%,25%
sub2,3,D,356,1,1266,d,r,s,4,3,75%,25%
sub2,3,D,357,1,1735,d,r,s,4,4,75%,25%
sub2,3,D,364,1,891,n,r,s,1,2,75%,25%
sub2,3,D,365,1,2062,d,s,s,1,3,75%,25%
sub2,3,D,366,1,1141,n,r,s,1,4,75%,25%
sub2,3,D,374,1,1140,n,s,s,3,2,75%,25%
sub2,3,D,375,1,1938,d,r,s,3,3,75%,25%
sub2,3,D,376,1,1297,n,s,s,3,4,75%,25%
sub2,3,D,384,1,953,n,s,s,4,2,75%,25%
sub2,3,D,385,1,985,d,r,s,4,3,75%,25%
sub2,3,D,386,1,1015,d,r,s,4,4,75%,25%
sub2,3,D,394,1,1078,n,s,s,3,2,75%,25%
sub2,3,D,395,1,1188,d,r,s,3,3,75%,25%
sub2,3,D,396,1,1594,n,s,s,3,4,75%,25%
sub2,3,D,404,1,906,n,s,s,3,2,75%,25%
sub2,3,D,405,1,1078,d,r,s,3,3,75%,25%
sub2,3,D,406,1,2063,n,s,s,3,4,75%,25%
sub2,3,D,414,1,813,n,r,s,2,2,75%,25%
sub2,3,D,415,1,1655,d,s,s,2,3,75%,25%
sub2,3,D,416,1,1266,d,s,s,2,4,75%,25%
sub2,3,D,423,1,797,n,s,s,4,2,75%,25%
sub2,3,D,424,1,1187,d,r,s,4,3,75%,25%
sub2,3,D,425,1,1140,d,r,s,4,4,75%,25%
sub2,3,D,432,1,844,n,r,s,1,2,75%,25%
sub2,3,D,433,1,891,d,s,s,1,3,75%,25%
sub2,3,D,434,1,797,n,r,s,1,4,75%,25%
sub2,3,D,443,1,1406,d,s,s,1,3,75%,25%
sub2,3,D,444,1,843,n,r,s,1,4,75%,25%
sub2,3,D,452,1,828,n,r,s,1,2,75%,25%
sub2,3,D,453,1,1407,d,s,s,1,3,75%,25%
sub2,3,D,454,1,1829,n,r,s,1,4,75%,25%
sub2,3,D,462,1,1422,n,s,s,3,2,75%,25%
sub2,3,D,463,1,1141,d,r,s,3,3,75%,25%
sub2,3,D,464,1,906,n,s,s,3,4,75%,25%
sub2,3,D,472,1,812,n,r,s,2,2,75%,25%
sub2,3,D,473,1,844,d,s,s,2,3,75%,25%
sub2,3,D,474,1,1078,d,s,s,2,4,75%,25%
sub2,4,C,486,1,922,n,r,s,2,2,25%,25%
sub2,4,C,487,1,1266,d,s,s,2,3,25%,25%
sub2,4,C,488,1,1078,d,s,s,2,4,25%,25%
sub2,4,C,496,1,961,n,r,s,2,2,25%,25%
sub2,4,C,497,1,1250,d,s,s,2,3,25%,25%
sub2,4,C,498,1,1078,d,s,s,2,4,25%,25%
sub2,4,C,505,1,1968,n,s,s,4,2,25%,25%
sub2,4,C,506,1,1265,d,r,s,4,3,25%,25%
sub2,4,C,507,1,1485,d,r,s,4,4,25%,25%
sub2,4,C,515,1,874,n,s,s,4,2,25%,25%
sub2,4,C,516,1,922,d,r,s,4,3,25%,25%
sub2,4,C,517,1,717,d,r,s,4,4,25%,25%
sub2,4,C,524,1,906,n,r,s,1,2,25%,25%
sub2,4,C,525,1,1312,d,s,s,1,3,25%,25%
sub2,4,C,526,1,1578,n,r,s,1,4,25%,25%
sub2,4,C,534,1,1718,n,s,s,3,2,25%,25%
sub2,4,C,535,1,1203,d,r,s,3,3,25%,25%
sub2,4,C,536,1,1188,n,s,s,3,4,25%,25%
sub2,4,C,544,1,1063,n,s,s,4,2,25%,25%
sub2,4,C,545,1,2125,d,r,s,4,3,25%,25%
sub2,4,C,554,1,937,n,s,s,3,2,25%,25%
sub2,4,C,555,1,969,d,r,s,3,3,25%,25%
sub2,4,C,556,1,828,n,s,s,3,4,25%,25%
sub2,4,C,562,1,907,n,s,s,3,2,25%,25%
sub2,4,C,563,1,1063,d,r,s,3,3,25%,25%
sub2,4,C,564,1,906,n,s,s,3,4,25%,25%
sub2,4,C,572,1,813,n,r,s,2,2,25%,25%
sub2,4,C,573,1,1266,d,s,s,2,3,25%,25%
sub2,4,C,574,1,1204,d,s,s,2,4,25%,25%
sub2,4,C,582,1,859,n,s,s,4,2,25%,25%
sub2,4,C,583,1,921,d,r,s,4,3,25%,25%
sub2,4,C,584,1,1078,d,r,s,4,4,25%,25%
sub2,4,C,592,1,969,n,r,s,1,2,25%,25%
sub2,4,C,593,1,1532,d,s,s,1,3,25%,25%
sub2,4,C,594,1,890,n,r,s,1,4,25%,25%
sub2,4,C,602,1,781,n,r,s,1,2,25%,25%
sub2,4,C,603,1,1265,d,s,s,1,3,25%,25%
sub2,4,C,604,1,1032,n,r,s,1,4,25%,25%
sub2,4,C,612,1,1093,n,r,s,1,2,25%,25%
sub2,4,C,613,1,1453,d,s,s,1,3,25%,25%
sub2,4,C,614,1,1094,n,r,s,1,4,25%,25%
sub2,4,C,622,1,1828,n,s,s,3,2,25%,25%
sub2,4,C,623,1,1375,d,r,s,3,3,25%,25%
sub2,4,C,624,1,1171,n,s,s,3,4,25%,25%
sub3,1,A,6,1,2047,d,r,s,4,3,25%,75%
sub3,1,A,7,1,1953,d,r,s,4,4,25%,75%
sub3,1,A,15,1,1771,n,s,s,4,2,25%,75%
sub3,1,A,16,1,1408,d,r,s,4,3,25%,75%
sub3,1,A,17,1,1379,d,r,s,4,4,25%,75%
sub3,1,A,25,1,1490,n,r,s,1,2,25%,75%
sub3,1,A,26,1,2408,d,s,s,1,3,25%,75%
sub3,1,A,27,1,1455,n,r,s,1,4,25%,75%
sub3,1,A,34,1,1387,n,r,s,2,2,25%,75%
sub3,1,A,35,1,1589,d,s,s,2,3,25%,75%
sub3,1,A,44,1,1710,n,s,s,3,2,25%,75%
sub3,1,A,45,1,1399,d,r,s,3,3,25%,75%
sub3,1,A,46,1,1799,n,s,s,3,4,25%,75%
sub3,1,A,53,1,1675,n,r,s,1,2,25%,75%
sub3,1,A,54,1,1722,d,s,s,1,3,25%,75%
sub3,1,A,55,1,1830,n,r,s,1,4,25%,75%
sub3,1,A,63,1,1293,n,r,s,2,2,25%,75%
sub3,1,A,65,1,1474,d,s,s,2,4,25%,75%
sub3,1,A,74,1,1786,d,r,s,3,3,25%,75%
sub3,1,A,75,1,1774,n,s,s,3,4,25%,75%
sub3,1,A,85,1,1957,d,s,s,2,4,25%,75%
sub3,1,A,93,1,1398,n,s,s,4,2,25%,75%
sub3,1,A,94,1,1738,d,r,s,4,3,25%,75%
sub3,1,A,104,1,2208,d,s,s,1,3,25%,75%
sub3,1,A,105,1,1772,n,r,s,1,4,25%,75%
sub3,1,A,113,1,1309,n,s,s,3,2,25%,75%
sub3,1,A,114,1,2343,d,r,s,3,3,25%,75%
sub3,1,A,115,1,2217,n,s,s,3,4,25%,75%
sub3,1,A,124,1,1988,d,r,s,3,3,25%,75%
sub3,1,A,125,1,1405,n,s,s,3,4,25%,75%
sub3,1,A,133,1,965,n,s,s,4,2,25%,75%
sub3,1,A,134,1,1029,d,r,s,4,3,25%,75%
sub3,1,A,135,1,1428,d,r,s,4,4,25%,75%
sub3,1,A,143,1,1954,n,r,s,1,2,25%,75%
sub3,1,A,145,1,1439,n,r,s,1,4,25%,75%
sub3,1,A,153,1,1280,n,r,s,2,2,25%,75%
sub3,1,A,154,1,1099,d,s,s,2,3,25%,75%
sub3,1,A,155,1,2283,d,s,s,2,4,25%,75%
sub3,2,B,167,1,1787,n,s,s,4,2,75%,75%
sub3,2,B,168,1,1879,d,r,s,4,3,75%,75%
sub3,2,B,175,1,1421,n,s,s,4,2,75%,75%
sub3,2,B,176,1,1641,d,r,s,4,3,75%,75%
sub3,2,B,177,1,1642,d,r,s,4,4,75%,75%
sub3,2,B,184,1,1410,n,r,s,1,2,75%,75%
sub3,2,B,185,1,1994,d,s,s,1,3,75%,75%
sub3,2,B,193,1,1403,n,r,s,2,2,75%,75%
sub3,2,B,194,1,1294,d,s,s,2,3,75%,75%
sub3,2,B,204,1,2396,d,r,s,3,3,75%,75%
sub3,2,B,205,1,1254,n,s,s,3,4,75%,75%
sub3,2,B,213,1,1356,n,r,s,1,2,75%,75%
sub3,2,B,214,1,1740,d,s,s,1,3,75%,75%
sub3,2,B,215,1,1118,n,r,s,1,4,75%,75%
sub3,2,B,223,1,1335,n,r,s,2,2,75%,75%
sub3,2,B,224,1,1739,d,s,s,2,3,75%,75%
sub3,2,B,225,1,2001,d,s,s,2,4,75%,75%
sub3,2,B,232,1,1225,n,s,s,3,2,75%,75%
sub3,2,B,233,1,1607,d,r,s,3,3,75%,75%
sub3,2,B,234,1,1492,n,s,s,3,4,75%,75%
sub3,2,B,242,1,1214,n,r,s,2,2,75%,75%
sub3,2,B,243,1,1059,d,s,s,2,3,75%,75%
sub3,2,B,244,1,1505,d,s,s,2,4,75%,75%
sub3,2,B,252,1,1302,n,s,s,4,2,75%,75%
sub3,2,B,253,1,1344,d,r,s,4,3,75%,75%
sub3,2,B,254,1,1181,d,r,s,4,4,75%,75%
sub3,2,B,262,1,1289,n,r,s,1,2,75%,75%
sub3,2,B,263,1,1206,d,s,s,1,3,75%,75%
sub3,2,B,264,1,1353,n,r,s,1,4,75%,75%
sub3,2,B,272,1,1425,n,s,s,3,2,75%,75%
sub3,2,B,273,1,1547,d,r,s,3,3,75%,75%
sub3,2,B,274,1,1057,n,s,s,3,4,75%,75%
sub3,2,B,283,1,1208,d,r,s,3,3,75%,75%
sub3,2,B,284,1,1983,n,s,s,3,4,75%,75%
sub3,2,B,292,1,1455,n,s,s,4,2,75%,75%
sub3,2,B,293,1,1229,d,r,s,4,3,75%,75%
sub3,2,B,294,1,1215,d,r,s,4,4,75%,75%
sub3,2,B,302,1,1706,n,r,s,1,2,75%,75%
sub3,2,B,303,1,1571,d,s,s,1,3,75%,75%
sub3,2,B,304,1,1284,n,r,s,1,4,75%,75%
sub3,2,B,312,1,2110,n,r,s,2,2,75%,75%
sub3,2,B,313,1,1535,d,s,s,2,3,75%,75%
sub3,2,B,314,1,1846,d,s,s,2,4,75%,75%
sub3,3,D,327,1,1477,n,s,s,4,2,75%,25%
sub3,3,D,328,1,1567,d,r,s,4,3,75%,25%
sub3,3,D,329,1,1260,d,r,s,4,4,75%,25%
sub3,3,D,337,1,1219,n,s,s,4,2,75%,25%
sub3,3,D,338,1,1244,d,r,s,4,3,75%,25%
sub3,3,D,339,1,1220,d,r,s,4,4,75%,25%
sub3,3,D,348,1,1791,d,s,s,1,3,75%,25%
sub3,3,D,349,1,1505,n,r,s,1,4,75%,25%
sub3,3,D,357,1,1343,n,r,s,2,2,75%,25%
sub3,3,D,358,1,1175,d,s,s,2,3,75%,25%
sub3,3,D,359,1,1626,d,s,s,2,4,75%,25%
sub3,3,D,365,1,1330,n,s,s,3,2,75%,25%
sub3,3,D,366,1,1458,d,r,s,3,3,75%,25%
sub3,3,D,367,1,1147,n,s,s,3,4,75%,25%
sub3,3,D,373,1,1410,n,r,s,1,2,75%,25%
sub3,3,D,375,1,1294,n,r,s,1,4,75%,25%
sub3,3,D,384,1,1750,d,s,s,2,3,75%,25%
sub3,3,D,385,1,1778,d,s,s,2,4,75%,25%
sub3,3,D,393,1,1785,n,s,s,3,2,75%,25%
sub3,3,D,394,1,1474,d,r,s,3,3,75%,25%
sub3,3,D,395,1,963,n,s,s,3,4,75%,25%
sub3,3,D,403,1,1018,n,r,s,2,2,75%,25%
sub3,3,D,404,1,1376,d,s,s,2,3,75%,25%
sub3,3,D,405,1,1032,d,s,s,2,4,75%,25%
sub3,3,D,414,1,1519,d,r,s,4,3,75%,25%
sub3,3,D,415,1,1948,d,r,s,4,4,75%,25%
sub3,3,D,424,1,2323,d,s,s,1,3,75%,25%
sub3,3,D,425,1,1259,n,r,s,1,4,75%,25%
sub3,3,D,434,1,1207,d,r,s,3,3,75%,25%
sub3,3,D,443,1,1776,n,s,s,3,2,75%,25%
sub3,3,D,445,1,1172,n,s,s,3,4,75%,25%
sub3,3,D,452,1,1331,n,s,s,4,2,75%,25%
sub3,3,D,453,1,1172,d,r,s,4,3,75%,25%
sub3,3,D,454,1,1618,d,r,s,4,4,75%,25%
sub3,3,D,462,1,1432,n,r,s,1,2,75%,25%
sub3,3,D,463,1,1496,d,s,s,1,3,75%,25%
sub3,3,D,464,1,1990,n,r,s,1,4,75%,25%
sub3,3,D,472,1,974,n,r,s,2,2,75%,25%
sub3,3,D,474,1,1494,d,s,s,2,4,75%,25%
sub3,4,C,488,1,2392,d,r,s,4,3,25%,25%
sub3,4,C,489,1,1123,d,r,s,4,4,25%,25%
sub3,4,C,495,1,1452,n,s,s,4,2,25%,25%
sub3,4,C,496,1,1715,d,r,s,4,3,25%,25%
sub3,4,C,497,1,1119,d,r,s,4,4,25%,25%
sub3,4,C,503,1,1761,n,r,s,1,2,25%,25%
sub3,4,C,504,1,1632,d,s,s,1,3,25%,25%
sub3,4,C,505,1,1438,n,r,s,1,4,25%,25%
sub3,4,C,513,1,1034,n,r,s,2,2,25%,25%
sub3,4,C,514,1,1868,d,s,s,2,3,25%,25%
sub3,4,C,515,1,1552,d,s,s,2,4,25%,25%
sub3,4,C,523,1,648,n,s,s,3,2,25%,25%
sub3,4,C,524,1,1504,d,r,s,3,3,25%,25%
sub3,4,C,525,1,969,n,s,s,3,4,25%,25%
sub3,4,C,533,1,1504,n,r,s,1,2,25%,25%
sub3,4,C,534,1,1213,d,s,s,1,3,25%,25%
sub3,4,C,535,1,1544,n,r,s,1,4,25%,25%
sub3,4,C,543,1,1156,n,r,s,2,2,25%,25%
sub3,4,C,544,1,1634,d,s,s,2,3,25%,25%
sub3,4,C,545,1,1318,d,s,s,2,4,25%,25%
sub3,4,C,552,1,1492,n,s,s,3,2,25%,25%
sub3,4,C,554,1,1842,n,s,s,3,4,25%,25%
sub3,4,C,562,1,945,n,r,s,2,2,25%,25%
sub3,4,C,563,1,1244,d,s,s,2,3,25%,25%
sub3,4,C,564,1,1010,d,s,s,2,4,25%,25%
sub3,4,C,573,1,1533,d,r,s,4,3,25%,25%
sub3,4,C,574,1,1010,d,r,s,4,4,25%,25%
sub3,4,C,582,1,1168,n,r,s,1,2,25%,25%
sub3,4,C,583,1,1289,d,s,s,1,3,25%,25%
sub3,4,C,594,1,1134,n,s,s,3,4,25%,25%
sub3,4,C,602,1,1243,n,s,s,3,2,25%,25%
sub3,4,C,603,1,982,d,r,s,3,3,25%,25%
sub3,4,C,612,1,1009,n,s,s,4,2,25%,25%
sub3,4,C,613,1,1081,d,r,s,4,3,25%,25%
sub3,4,C,614,1,1113,d,r,s,4,4,25%,25%
sub3,4,C,622,1,1027,n,r,s,1,2,25%,25%
sub3,4,C,632,1,1318,n,r,s,2,2,25%,25%
sub3,4,C,633,1,1022,d,s,s,2,3,25%,25%
sub4,1,A,7,1,859,n,r,s,2,2,25%,75%
sub4,1,A,8,1,1951,d,s,s,2,3,25%,75%
sub4,1,A,9,1,1221,d,s,s,2,4,25%,75%
sub4,1,A,17,1,1188,n,s,s,4,2,25%,75%
sub4,1,A,18,1,1219,d,r,s,4,3,25%,75%
sub4,1,A,19,1,1145,d,r,s,4,4,25%,75%
sub4,1,A,27,1,1203,n,s,s,4,2,25%,75%
sub4,1,A,28,1,1176,d,r,s,4,3,25%,75%
sub4,1,A,29,1,1161,d,r,s,4,4,25%,75%
sub4,1,A,36,1,1508,n,s,s,4,2,25%,75%
sub4,1,A,37,1,995,d,r,s,4,3,25%,75%
sub4,1,A,38,1,1017,d,r,s,4,4,25%,75%
sub4,1,A,46,1,1656,n,s,s,3,2,25%,75%
sub4,1,A,47,1,981,d,r,s,3,3,25%,75%
sub4,1,A,48,1,1153,n,s,s,3,4,25%,75%
sub4,1,A,55,1,1152,n,r,s,1,2,25%,75%
sub4,1,A,56,1,1223,d,s,s,1,3,25%,75%
sub4,1,A,57,1,836,n,r,s,1,4,25%,75%
sub4,1,A,64,1,1372,n,s,s,3,2,25%,75%
sub4,1,A,65,1,1519,d,r,s,3,3,25%,75%
sub4,1,A,66,1,958,n,s,s,3,4,25%,75%
sub4,1,A,74,1,1142,n,r,s,1,2,25%,75%
sub4,1,A,75,1,1094,d,s,s,1,3,25%,75%
sub4,1,A,76,1,727,n,r,s,1,4,25%,75%
sub4,1,A,84,1,1015,n,r,s,1,2,25%,75%
sub4,1,A,85,1,1245,d,s,s,1,3,25%,75%
sub4,1,A,86,1,797,n,r,s,1,4,25%,75%
sub4,1,A,94,1,1180,n,s,s,4,2,25%,75%
sub4,1,A,95,1,710,d,r,s,4,3,25%,75%
sub4,1,A,96,1,817,d,r,s,4,4,25%,75%
sub4,1,A,103,1,804,n,r,s,1,2,25%,75%
sub4,1,A,104,1,1291,d,s,s,1,3,25%,75%
sub4,1,A,105,1,796,n,r,s,1,4,25%,75%
sub4,1,A,113,1,1083,n,s,s,3,2,25%,75%
sub4,1,A,114,1,1132,d,r,s,3,3,25%,75%
sub4,1,A,115,1,990,n,s,s,3,4,25%,75%
sub4,1,A,123,1,698,n,r,s,2,2,25%,75%
sub4,1,A,124,1,1650,d,s,s,2,3,25%,75%
sub4,1,A,125,1,1647,d,s,s,2,4,25%,75%
sub4,1,A,132,1,1081,n,s,s,3,2,25%,75%
sub4,1,A,133,1,931,d,r,s,3,3,25%,75%
sub4,1,A,134,1,704,n,s,s,3,4,25%,75%
sub4,1,A,142,1,872,n,r,s,2,2,25%,75%
sub4,1,A,143,1,874,d,s,s,2,3,25%,75%
sub4,1,A,144,1,775,d,s,s,2,4,25%,75%
sub4,1,A,152,1,758,n,r,s,2,2,25%,75%
sub4,1,A,153,1,1100,d,s,s,2,3,25%,75%
sub4,1,A,154,1,1052,d,s,s,2,4,25%,75%
sub4,2,B,165,1,657,n,r,s,2,2,75%,75%
sub4,2,B,166,1,757,d,s,s,2,3,75%,75%
sub4,2,B,167,1,919,d,s,s,2,4,75%,75%
sub4,2,B,175,1,1037,n,s,s,4,2,75%,75%
sub4,2,B,176,1,1215,d,r,s,4,3,75%,75%
sub4,2,B,177,1,854,d,r,s,4,4,75%,75%
sub4,2,B,185,1,1189,n,s,s,4,2,75%,75%
sub4,2,B,186,1,1038,d,r,s,4,3,75%,75%
sub4,2,B,187,1,986,d,r,s,4,4,75%,75%
sub4,2,B,195,1,949,n,s,s,4,2,75%,75%
sub4,2,B,196,1,957,d,r,s,4,3,75%,75%
sub4,2,B,197,1,926,d,r,s,4,4,75%,75%
sub4,2,B,205,1,762,n,s,s,3,2,75%,75%
sub4,2,B,206,1,1291,d,r,s,3,3,75%,75%
sub4,2,B,207,1,763,n,s,s,3,4,75%,75%
sub4,2,B,213,1,1026,n,r,s,1,2,75%,75%
sub4,2,B,214,1,1546,d,s,s,1,3,75%,75%
sub4,2,B,215,1,920,n,r,s,1,4,75%,75%
sub4,2,B,223,1,1117,n,s,s,3,2,75%,75%
sub4,2,B,224,1,1083,d,r,s,3,3,75%,75%
sub4,2,B,225,1,762,n,s,s,3,4,75%,75%
sub4,2,B,233,1,706,n,r,s,1,2,75%,75%
sub4,2,B,234,1,1017,d,s,s,1,3,75%,75%
sub4,2,B,235,1,715,n,r,s,1,4,75%,75%
sub4,2,B,243,1,1215,n,r,s,1,2,75%,75%
sub4,2,B,244,1,1233,d,s,s,1,3,75%,75%
sub4,2,B,245,1,1740,n,r,s,1,4,75%,75%
sub4,2,B,253,1,975,n,s,s,4,2,75%,75%
sub4,2,B,254,1,1090,d,r,s,4,3,75%,75%
sub4,2,B,255,1,1851,d,r,s,4,4,75%,75%
sub4,2,B,263,1,1114,n,r,s,1,2,75%,75%
sub4,2,B,264,1,1070,d,s,s,1,3,75%,75%
sub4,2,B,265,1,2219,n,r,s,1,4,75%,75%
sub4,2,B,273,1,1059,n,s,s,3,2,75%,75%
sub4,2,B,274,1,886,d,r,s,3,3,75%,75%
sub4,2,B,275,1,1778,n,s,s,3,4,75%,75%
sub4,2,B,283,1,832,n,r,s,2,2,75%,75%
sub4,2,B,284,1,915,d,s,s,2,3,75%,75%
sub4,2,B,285,1,866,d,s,s,2,4,75%,75%
sub4,2,B,293,1,941,n,s,s,3,2,75%,75%
sub4,2,B,294,1,1241,d,r,s,3,3,75%,75%
sub4,2,B,295,1,1369,n,s,s,3,4,75%,75%
sub4,2,B,302,1,797,n,r,s,2,2,75%,75%
sub4,2,B,303,1,993,d,s,s,2,3,75%,75%
sub4,2,B,304,1,742,d,s,s,2,4,75%,75%
sub4,2,B,312,1,790,n,r,s,2,2,75%,75%
sub4,2,B,313,1,747,d,s,s,2,3,75%,75%
sub4,2,B,314,1,1216,d,s,s,2,4,75%,75%
sub4,3,D,327,1,1303,n,r,s,2,2,75%,25%
sub4,3,D,328,1,1481,d,s,s,2,3,75%,25%
sub4,3,D,329,1,1247,d,s,s,2,4,75%,25%
sub4,3,D,336,1,1126,n,s,s,4,2,75%,25%
sub4,3,D,337,1,903,d,r,s,4,3,75%,25%
sub4,3,D,338,1,1568,d,r,s,4,4,75%,25%
sub4,3,D,346,1,968,n,s,s,4,2,75%,25%
sub4,3,D,347,1,1592,d,r,s,4,3,75%,25%
sub4,3,D,348,1,1534,d,r,s,4,4,75%,25%
sub4,3,D,356,1,774,n,s,s,4,2,75%,25%
sub4,3,D,357,1,888,d,r,s,4,3,75%,25%
sub4,3,D,358,1,985,d,r,s,4,4,75%,25%
sub4,3,D,366,1,982,n,s,s,3,2,75%,25%
sub4,3,D,367,1,954,d,r,s,3,3,75%,25%
sub4,3,D,368,1,826,n,s,s,3,4,75%,25%
sub4,3,D,376,1,977,n,r,s,1,2,75%,25%
sub4,3,D,377,1,1780,d,s,s,1,3,75%,25%
sub4,3,D,378,1,702,n,r,s,1,4,75%,25%
sub4,3,D,385,1,1410,n,s,s,3,2,75%,25%
sub4,3,D,386,1,945,d,r,s,3,3,75%,25%
sub4,3,D,387,1,843,n,s,s,3,4,75%,25%
sub4,3,D,395,1,1106,n,r,s,1,2,75%,25%
sub4,3,D,396,1,2224,d,s,s,1,3,75%,25%
sub4,3,D,397,1,1105,n,r,s,1,4,75%,25%
sub4,3,D,405,1,790,n,r,s,1,2,75%,25%
sub4,3,D,406,1,1230,d,s,s,1,3,75%,25%
sub4,3,D,407,1,843,n,r,s,1,4,75%,25%
sub4,3,D,415,1,817,n,s,s,4,2,75%,25%
sub4,3,D,416,1,1161,d,r,s,4,3,75%,25%
sub4,3,D,417,1,1442,d,r,s,4,4,75%,25%
sub4,3,D,425,1,870,n,r,s,1,2,75%,25%
sub4,3,D,426,1,965,d,s,s,1,3,75%,25%
sub4,3,D,427,1,1525,n,r,s,1,4,75%,25%
sub4,3,D,434,1,1041,n,s,s,3,2,75%,25%
sub4,3,D,435,1,1114,d,r,s,3,3,75%,25%
sub4,3,D,436,1,1348,n,s,s,3,4,75%,25%
sub4,3,D,444,1,797,n,r,s,2,2,75%,25%
sub4,3,D,445,1,1309,d,s,s,2,3,75%,25%
sub4,3,D,446,1,899,d,s,s,2,4,75%,25%
sub4,3,D,453,1,1389,n,s,s,3,2,75%,25%
sub4,3,D,454,1,1243,d,r,s,3,3,75%,25%
sub4,3,D,455,1,1031,n,s,s,3,4,75%,25%
sub4,3,D,463,1,862,n,r,s,2,2,75%,25%
sub4,3,D,464,1,1695,d,s,s,2,3,75%,25%
sub4,3,D,465,1,1399,d,s,s,2,4,75%,25%
sub4,3,D,472,1,843,n,r,s,2,2,75%,25%
sub4,3,D,473,1,965,d,s,s,2,3,75%,25%
sub4,3,D,474,1,942,d,s,s,2,4,75%,25%
sub4,4,C,486,1,939,n,r,s,2,2,25%,25%
sub4,4,C,487,1,1291,d,s,s,2,3,25%,25%
sub4,4,C,488,1,804,d,s,s,2,4,25%,25%
sub4,4,C,496,1,1195,n,s,s,4,2,25%,25%
sub4,4,C,497,1,1140,d,r,s,4,3,25%,25%
sub4,4,C,498,1,628,d,r,s,4,4,25%,25%
sub4,4,C,506,1,669,n,s,s,4,2,25%,25%
sub4,4,C,507,1,797,d,r,s,4,3,25%,25%
sub4,4,C,508,1,768,d,r,s,4,4,25%,25%
sub4,4,C,516,1,789,n,s,s,4,2,25%,25%
sub4,4,C,517,1,1173,d,r,s,4,3,25%,25%
sub4,4,C,518,1,982,d,r,s,4,4,25%,25%
sub4,4,C,526,1,932,n,s,s,3,2,25%,25%
sub4,4,C,527,1,1006,d,r,s,3,3,25%,25%
sub4,4,C,528,1,880,n,s,s,3,4,25%,25%
sub4,4,C,535,1,1237,n,r,s,1,2,25%,25%
sub4,4,C,536,1,802,d,s,s,1,3,25%,25%
sub4,4,C,537,1,1472,n,r,s,1,4,25%,25%
sub4,4,C,545,1,983,n,s,s,3,2,25%,25%
sub4,4,C,546,1,1207,d,r,s,3,3,25%,25%
sub4,4,C,547,1,1064,n,s,s,3,4,25%,25%
sub4,4,C,555,1,731,n,r,s,1,2,25%,25%
sub4,4,C,556,1,1458,d,s,s,1,3,25%,25%
sub4,4,C,557,1,831,n,r,s,1,4,25%,25%
sub4,4,C,563,1,940,n,r,s,1,2,25%,25%
sub4,4,C,564,1,978,d,s,s,1,3,25%,25%
sub4,4,C,565,1,686,n,r,s,1,4,25%,25%
sub4,4,C,573,1,947,n,s,s,4,2,25%,25%
sub4,4,C,574,1,952,d,r,s,4,3,25%,25%
sub4,4,C,575,1,746,d,r,s,4,4,25%,25%
sub4,4,C,583,1,634,n,r,s,1,2,25%,25%
sub4,4,C,584,1,1245,d,s,s,1,3,25%,25%
sub4,4,C,585,1,608,n,r,s,1,4,25%,25%
sub4,4,C,593,1,974,n,s,s,3,2,25%,25%
sub4,4,C,594,1,1242,d,r,s,3,3,25%,25%
sub4,4,C,595,1,1034,n,s,s,3,4,25%,25%
sub4,4,C,603,1,733,n,r,s,2,2,25%,25%
sub4,4,C,604,1,1513,d,s,s,2,3,25%,25%
sub4,4,C,605,1,868,d,s,s,2,4,25%,25%
sub4,4,C,612,1,1186,n,s,s,3,2,25%,25%
sub4,4,C,613,1,894,d,r,s,3,3,25%,25%
sub4,4,C,614,1,1253,n,s,s,3,4,25%,25%
sub4,4,C,622,1,763,n,r,s,2,2,25%,25%
sub4,4,C,623,1,1025,d,s,s,2,3,25%,25%
sub4,4,C,624,1,967,d,s,s,2,4,25%,25%
sub4,4,C,632,1,800,n,r,s,2,2,25%,25%
sub4,4,C,633,1,962,d,s,s,2,3,25%,25%
sub4,4,C,634,1,1222,d,s,s,2,4,25%,25%
sub5,1,C,7,1,842,n,r,s,2,2,25%,25%
sub5,1,C,8,1,1756,d,s,s,2,3,25%,25%
sub5,1,C,9,1,1275,d,s,s,2,4,25%,25%
sub5,1,C,15,1,1563,n,s,s,3,2,25%,25%
sub5,1,C,16,1,1785,d,r,s,3,3,25%,25%
sub5,1,C,17,1,945,n,s,s,3,4,25%,25%
sub5,1,C,25,1,893,n,s,s,3,2,25%,25%
sub5,1,C,27,1,1439,n,s,s,3,4,25%,25%
sub5,1,C,35,1,850,n,s,s,3,2,25%,25%
sub5,1,C,36,1,1391,d,r,s,3,3,25%,25%
sub5,1,C,37,1,2073,n,s,s,3,4,25%,25%
sub5,1,C,45,1,956,n,r,s,2,2,25%,25%
sub5,1,C,46,1,1696,d,s,s,2,3,25%,25%
sub5,1,C,47,1,1733,d,s,s,2,4,25%,25%
sub5,1,C,54,1,1393,n,r,s,1,2,25%,25%
sub5,1,C,55,1,1108,d,s,s,1,3,25%,25%
sub5,1,C,56,1,964,n,r,s,1,4,25%,25%
sub5,1,C,64,1,680,n,s,s,4,2,25%,25%
sub5,1,C,65,1,1572,d,r,s,4,3,25%,25%
sub5,1,C,66,1,1159,d,r,s,4,4,25%,25%
sub5,1,C,75,1,1149,d,r,s,4,3,25%,25%
sub5,1,C,76,1,1072,d,r,s,4,4,25%,25%
sub5,1,C,84,1,837,n,s,s,4,2,25%,25%
sub5,1,C,85,1,1037,d,r,s,4,3,25%,25%
sub5,1,C,86,1,1616,d,r,s,4,4,25%,25%
sub5,1,C,94,1,1542,n,s,s,3,2,25%,25%
sub5,1,C,95,1,1052,d,r,s,3,3,25%,25%
sub5,1,C,96,1,1584,n,s,s,3,4,25%,25%
sub5,1,C,104,1,1020,n,r,s,1,2,25%,25%
sub5,1,C,105,1,1183,d,s,s,1,3,25%,25%
sub5,1,C,106,1,779,n,r,s,1,4,25%,25%
sub5,1,C,114,1,897,n,s,s,4,2,25%,25%
sub5,1,C,115,1,1327,d,r,s,4,3,25%,25%
sub5,1,C,116,1,1056,d,r,s,4,4,25%,25%
sub5,1,C,124,1,1226,n,r,s,2,2,25%,25%
sub5,1,C,125,1,1658,d,s,s,2,3,25%,25%
sub5,1,C,134,1,1183,n,r,s,1,2,25%,25%
sub5,1,C,135,1,1465,d,s,s,1,3,25%,25%
sub5,1,C,136,1,996,n,r,s,1,4,25%,25%
sub5,1,C,144,1,692,n,r,s,2,2,25%,25%
sub5,1,C,146,1,1768,d,s,s,2,4,25%,25%
sub5,1,C,152,1,1185,n,r,s,1,2,25%,25%
sub5,1,C,153,1,1053,d,s,s,1,3,25%,25%
sub5,1,C,154,1,807,n,r,s,1,4,25%,25%
sub5,2,D,167,1,964,n,r,s,2,2,75%,25%
sub5,2,D,168,1,1505,d,s,s,2,3,75%,25%
sub5,2,D,169,1,1535,d,s,s,2,4,75%,25%
sub5,2,D,176,1,1019,n,s,s,3,2,75%,25%
sub5,2,D,177,1,1341,d,r,s,3,3,75%,25%
sub5,2,D,178,1,1752,n,s,s,3,4,75%,25%
sub5,2,D,186,1,1274,n,s,s,3,2,75%,25%
sub5,2,D,187,1,996,d,r,s,3,3,75%,25%
sub5,2,D,188,1,1206,n,s,s,3,4,75%,25%
sub5,2,D,196,1,715,n,s,s,3,2,75%,25%
sub5,2,D,197,1,1816,d,r,s,3,3,75%,25%
sub5,2,D,198,1,874,n,s,s,3,4,75%,25%
sub5,2,D,206,1,691,n,r,s,2,2,75%,25%
sub5,2,D,207,1,1336,d,s,s,2,3,75%,25%
sub5,2,D,208,1,907,d,s,s,2,4,75%,25%
sub5,2,D,216,1,1121,d,s,s,1,3,75%,25%
sub5,2,D,217,1,1467,n,r,s,1,4,75%,25%
sub5,2,D,225,1,795,n,s,s,4,2,75%,25%
sub5,2,D,226,1,1156,d,r,s,4,3,75%,25%
sub5,2,D,227,1,1543,d,r,s,4,4,75%,25%
sub5,2,D,235,1,857,n,s,s,4,2,75%,25%
sub5,2,D,237,1,1435,d,r,s,4,4,75%,25%
sub5,2,D,243,1,1123,n,s,s,4,2,75%,25%
sub5,2,D,244,1,1076,d,r,s,4,3,75%,25%
sub5,2,D,245,1,1050,d,r,s,4,4,75%,25%
sub5,2,D,253,1,1089,n,s,s,3,2,75%,25%
sub5,2,D,254,1,1676,d,r,s,3,3,75%,25%
sub5,2,D,255,1,1201,n,s,s,3,4,75%,25%
sub5,2,D,263,1,738,n,r,s,1,2,75%,25%
sub5,2,D,264,1,1175,d,s,s,1,3,75%,25%
sub5,2,D,265,1,772,n,r,s,1,4,75%,25%
sub5,2,D,273,1,859,n,s,s,4,2,75%,25%
sub5,2,D,274,1,1483,d,r,s,4,3,75%,25%
sub5,2,D,275,1,1521,d,r,s,4,4,75%,25%
sub5,2,D,283,1,1249,n,r,s,2,2,75%,25%
sub5,2,D,284,1,1249,d,s,s,2,3,75%,25%
sub5,2,D,285,1,1023,d,s,s,2,4,75%,25%
sub5,2,D,293,1,738,n,r,s,1,2,75%,25%
sub5,2,D,294,1,1208,d,s,s,1,3,75%,25%
sub5,2,D,295,1,755,n,r,s,1,4,75%,25%
sub5,2,D,303,1,670,n,r,s,2,2,75%,25%
sub5,2,D,304,1,1295,d,s,s,2,3,75%,25%
sub5,2,D,305,1,1022,d,s,s,2,4,75%,25%
sub5,2,D,312,1,770,n,r,s,1,2,75%,25%
sub5,2,D,313,1,812,d,s,s,1,3,75%,25%
sub5,2,D,314,1,753,n,r,s,1,4,75%,25%
sub5,3,B,326,1,726,n,r,s,2,2,75%,75%
sub5,3,B,327,1,1114,d,s,s,2,3,75%,75%
sub5,3,B,328,1,1101,d,s,s,2,4,75%,75%
sub5,3,B,336,1,818,n,s,s,3,2,75%,75%
sub5,3,B,337,1,935,d,r,s,3,3,75%,75%
sub5,3,B,338,1,664,n,s,s,3,4,75%,75%
sub5,3,B,346,1,716,n,s,s,3,2,75%,75%
sub5,3,B,347,1,1363,d,r,s,3,3,75%,75%
sub5,3,B,348,1,731,n,s,s,3,4,75%,75%
sub5,3,B,356,1,897,n,s,s,3,2,75%,75%
sub5,3,B,357,1,1321,d,r,s,3,3,75%,75%
sub5,3,B,358,1,944,n,s,s,3,4,75%,75%
sub5,3,B,364,1,916,n,r,s,2,2,75%,75%
sub5,3,B,365,1,2264,d,s,s,2,3,75%,75%
sub5,3,B,366,1,1363,d,s,s,2,4,75%,75%
sub5,3,B,374,1,908,n,r,s,1,2,75%,75%
sub5,3,B,375,1,1101,d,s,s,1,3,75%,75%
sub5,3,B,376,1,1157,n,r,s,1,4,75%,75%
sub5,3,B,384,1,1284,n,s,s,4,2,75%,75%
sub5,3,B,385,1,1021,d,r,s,4,3,75%,75%
sub5,3,B,386,1,1413,d,r,s,4,4,75%,75%
sub5,3,B,394,1,1386,n,s,s,4,2,75%,75%
sub5,3,B,395,1,1399,d,r,s,4,3,75%,75%
sub5,3,B,396,1,1492,d,r,s,4,4,75%,75%
sub5,3,B,404,1,1031,n,s,s,4,2,75%,75%
sub5,3,B,405,1,1283,d,r,s,4,3,75%,75%
sub5,3,B,406,1,943,d,r,s,4,4,75%,75%
sub5,3,B,414,1,891,n,s,s,3,2,75%,75%
sub5,3,B,415,1,1147,d,r,s,3,3,75%,75%
sub5,3,B,416,1,1063,n,s,s,3,4,75%,75%
sub5,3,B,424,1,663,n,r,s,1,2,75%,75%
sub5,3,B,425,1,676,d,s,s,1,3,75%,75%
sub5,3,B,426,1,857,n,r,s,1,4,75%,75%
sub5,3,B,433,1,819,n,s,s,4,2,75%,75%
sub5,3,B,434,1,727,d,r,s,4,3,75%,75%
sub5,3,B,435,1,947,d,r,s,4,4,75%,75%
sub5,3,B,443,1,776,n,r,s,2,2,75%,75%
sub5,3,B,444,1,1124,d,s,s,2,3,75%,75%
sub5,3,B,445,1,1510,d,s,s,2,4,75%,75%
sub5,3,B,453,1,998,n,r,s,1,2,75%,75%
sub5,3,B,454,1,1243,d,s,s,1,3,75%,75%
sub5,3,B,455,1,1202,n,r,s,1,4,75%,75%
sub5,3,B,462,1,962,n,r,s,2,2,75%,75%
sub5,3,B,463,1,1019,d,s,s,2,3,75%,75%
sub5,3,B,464,1,892,d,s,s,2,4,75%,75%
sub5,3,B,472,1,766,n,r,s,1,2,75%,75%
sub5,3,B,473,1,1128,d,s,s,1,3,75%,75%
sub5,3,B,474,1,700,n,r,s,1,4,75%,75%
sub5,4,A,487,1,865,n,r,s,2,2,25%,75%
sub5,4,A,488,1,895,d,s,s,2,3,25%,75%
sub5,4,A,489,1,651,d,s,s,2,4,25%,75%
sub5,4,A,497,1,872,n,s,s,3,2,25%,75%
sub5,4,A,498,1,936,d,r,s,3,3,25%,75%
sub5,4,A,499,1,711,n,s,s,3,4,25%,75%
sub5,4,A,506,1,743,n,s,s,3,2,25%,75%
sub5,4,A,507,1,1941,d,r,s,3,3,25%,75%
sub5,4,A,508,1,941,n,s,s,3,4,25%,75%
sub5,4,A,516,1,881,n,s,s,3,2,25%,75%
sub5,4,A,517,1,1680,d,r,s,3,3,25%,75%
sub5,4,A,518,1,1240,n,s,s,3,4,25%,75%
sub5,4,A,526,1,660,n,r,s,2,2,25%,75%
sub5,4,A,527,1,1387,d,s,s,2,3,25%,75%
sub5,4,A,528,1,1570,d,s,s,2,4,25%,75%
sub5,4,A,536,1,1366,n,r,s,1,2,25%,75%
sub5,4,A,537,1,954,d,s,s,1,3,25%,75%
sub5,4,A,538,1,789,n,r,s,1,4,25%,75%
sub5,4,A,546,1,1097,n,s,s,4,2,25%,75%
sub5,4,A,547,1,1153,d,r,s,4,3,25%,75%
sub5,4,A,548,1,1052,d,r,s,4,4,25%,75%
sub5,4,A,555,1,791,n,s,s,4,2,25%,75%
sub5,4,A,556,1,787,d,r,s,4,3,25%,75%
sub5,4,A,557,1,817,d,r,s,4,4,25%,75%
sub5,4,A,565,1,751,n,s,s,4,2,25%,75%
sub5,4,A,566,1,722,d,r,s,4,3,25%,75%
sub5,4,A,567,1,691,d,r,s,4,4,25%,75%
sub5,4,A,575,1,860,n,s,s,3,2,25%,75%
sub5,4,A,576,1,1713,d,r,s,3,3,25%,75%
sub5,4,A,577,1,1696,n,s,s,3,4,25%,75%
sub5,4,A,585,1,802,n,r,s,1,2,25%,75%
sub5,4,A,586,1,933,d,s,s,1,3,25%,75%
sub5,4,A,587,1,771,n,r,s,1,4,25%,75%
sub5,4,A,593,1,740,n,s,s,4,2,25%,75%
sub5,4,A,594,1,1205,d,r,s,4,3,25%,75%
sub5,4,A,595,1,1389,d,r,s,4,4,25%,75%
sub5,4,A,603,1,743,n,r,s,2,2,25%,75%
sub5,4,A,604,1,1380,d,s,s,2,3,25%,75%
sub5,4,A,605,1,756,d,s,s,2,4,25%,75%
sub5,4,A,612,1,807,n,r,s,1,2,25%,75%
sub5,4,A,613,1,1220,d,s,s,1,3,25%,75%
sub5,4,A,614,1,792,n,r,s,1,4,25%,75%
sub5,4,A,622,1,650,n,r,s,2,2,25%,75%
sub5,4,A,623,1,1058,d,s,s,2,3,25%,75%
sub5,4,A,624,1,1054,d,s,s,2,4,25%,75%
sub5,4,A,632,1,1437,n,r,s,1,2,25%,75%
sub5,4,A,633,1,1106,d,s,s,1,3,25%,75%
sub5,4,A,634,1,1341,n,r,s,1,4,25%,75%
sub6,1,A,7,1,1400,n,s,s,4,2,25%,75%
sub6,1,A,8,1,1176,d,r,s,4,3,25%,75%
sub6,1,A,9,1,1313,d,r,s,4,4,25%,75%
sub6,1,A,17,1,1270,n,s,s,4,2,25%,75%
sub6,1,A,18,1,1056,d,r,s,4,3,25%,75%
sub6,1,A,19,1,849,d,r,s,4,4,25%,75%
sub6,1,A,27,1,577,n,r,s,2,2,25%,75%
sub6,1,A,37,1,447,n,r,s,2,2,25%,75%
sub6,1,A,39,1,1063,d,s,s,2,4,25%,75%
sub6,1,A,47,1,732,n,s,s,3,2,25%,75%
sub6,1,A,49,1,1906,n,s,s,3,4,25%,75%
sub6,1,A,57,1,844,n,r,s,1,2,25%,75%
sub6,1,A,58,1,1423,d,s,s,1,3,25%,75%
sub6,1,A,67,1,683,n,r,s,2,2,25%,75%
sub6,1,A,68,1,871,d,s,s,2,3,25%,75%
sub6,1,A,69,1,944,d,s,s,2,4,25%,75%
sub6,1,A,77,1,535,n,r,s,2,2,25%,75%
sub6,1,A,78,1,763,d,s,s,2,3,25%,75%
sub6,1,A,79,1,890,d,s,s,2,4,25%,75%
sub6,1,A,87,1,746,n,r,s,1,2,25%,75%
sub6,1,A,88,1,737,d,s,s,1,3,25%,75%
sub6,1,A,89,1,844,n,r,s,1,4,25%,75%
sub6,1,A,97,1,1056,n,s,s,4,2,25%,75%
sub6,1,A,98,1,723,d,r,s,4,3,25%,75%
sub6,1,A,99,1,904,d,r,s,4,4,25%,75%
sub6,1,A,106,1,1125,n,r,s,1,2,25%,75%
sub6,1,A,107,1,1029,d,s,s,1,3,25%,75%
sub6,1,A,108,1,1057,n,r,s,1,4,25%,75%
sub6,1,A,116,1,672,n,r,s,1,2,25%,75%
sub6,1,A,117,1,766,d,s,s,1,3,25%,75%
sub6,1,A,118,1,1531,n,r,s,1,4,25%,75%
sub6,1,A,126,1,1246,n,s,s,3,2,25%,75%
sub6,1,A,127,1,793,d,r,s,3,3,25%,75%
sub6,1,A,128,1,1011,n,s,s,3,4,25%,75%
sub6,1,A,134,1,1219,n,s,s,4,2,25%,75%
sub6,1,A,135,1,1068,d,r,s,4,3,25%,75%
sub6,1,A,136,1,949,d,r,s,4,4,25%,75%
sub6,1,A,145,1,1113,n,s,s,3,4,25%,75%
sub6,1,A,152,1,1071,n,s,s,3,2,25%,75%
sub6,1,A,153,1,943,d,r,s,3,3,25%,75%
sub6,2,B,167,1,638,n,s,s,4,2,75%,75%
sub6,2,B,168,1,601,d,r,s,4,3,75%,75%
sub6,2,B,169,1,557,d,r,s,4,4,75%,75%
sub6,2,B,178,1,1706,d,r,s,4,3,75%,75%
sub6,2,B,179,1,884,d,r,s,4,4,75%,75%
sub6,2,B,187,1,837,n,r,s,2,2,75%,75%
sub6,2,B,188,1,677,d,s,s,2,3,75%,75%
sub6,2,B,189,1,951,d,s,s,2,4,75%,75%
sub6,2,B,197,1,671,n,r,s,2,2,75%,75%
sub6,2,B,198,1,780,d,s,s,2,3,75%,75%
sub6,2,B,199,1,1051,d,s,s,2,4,75%,75%
sub6,2,B,207,1,941,n,s,s,3,2,75%,75%
sub6,2,B,208,1,1007,d,r,s,3,3,75%,75%
sub6,2,B,209,1,729,n,s,s,3,4,75%,75%
sub6,2,B,217,1,806,n,r,s,1,2,75%,75%
sub6,2,B,218,1,954,d,s,s,1,3,75%,75%
sub6,2,B,219,1,885,n,r,s,1,4,75%,75%
sub6,2,B,226,1,903,n,r,s,2,2,75%,75%
sub6,2,B,227,1,874,d,s,s,2,3,75%,75%
sub6,2,B,228,1,623,d,s,s,2,4,75%,75%
sub6,2,B,235,1,657,n,r,s,2,2,75%,75%
sub6,2,B,236,1,1123,d,s,s,2,3,75%,75%
sub6,2,B,237,1,569,d,s,s,2,4,75%,75%
sub6,2,B,243,1,879,n,r,s,1,2,75%,75%
sub6,2,B,244,1,1053,d,s,s,1,3,75%,75%
sub6,2,B,245,1,1058,n,r,s,1,4,75%,75%
sub6,2,B,253,1,684,n,s,s,4,2,75%,75%
sub6,2,B,254,1,771,d,r,s,4,3,75%,75%
sub6,2,B,255,1,837,d,r,s,4,4,75%,75%
sub6,2,B,263,1,886,n,r,s,1,2,75%,75%
sub6,2,B,264,1,638,d,s,s,1,3,75%,75%
sub6,2,B,265,1,561,n,r,s,1,4,75%,75%
sub6,2,B,273,1,737,n,r,s,1,2,75%,75%
sub6,2,B,274,1,700,d,s,s,1,3,75%,75%
sub6,2,B,275,1,602,n,r,s,1,4,75%,75%
sub6,2,B,283,1,573,n,s,s,3,2,75%,75%
sub6,2,B,285,1,950,n,s,s,3,4,75%,75%
sub6,2,B,293,1,743,n,s,s,4,2,75%,75%
sub6,2,B,294,1,920,d,r,s,4,3,75%,75%
sub6,2,B,295,1,834,d,r,s,4,4,75%,75%
sub6,2,B,303,1,1021,n,s,s,3,2,75%,75%
sub6,2,B,304,1,941,d,r,s,3,3,75%,75%
sub6,2,B,305,1,1296,n,s,s,3,4,75%,75%
sub6,2,B,313,1,1083,n,s,s,3,2,75%,75%
sub6,2,B,315,1,855,n,s,s,3,4,75%,75%
sub6,3,D,327,1,745,n,s,s,4,2,75%,25%
sub6,3,D,328,1,940,d,r,s,4,3,75%,25%
sub6,3,D,329,1,660,d,r,s,4,4,75%,25%
sub6,3,D,336,1,860,n,s,s,4,2,75%,25%
sub6,3,D,337,1,828,d,r,s,4,3,75%,25%
sub6,3,D,338,1,760,d,r,s,4,4,75%,25%
sub6,3,D,346,1,851,n,r,s,2,2,75%,25%
sub6,3,D,347,1,781,d,s,s,2,3,75%,25%
sub6,3,D,348,1,647,d,s,s,2,4,75%,25%
sub6,3,D,356,1,885,n,r,s,2,2,75%,25%
sub6,3,D,357,1,720,d,s,s,2,3,75%,25%
sub6,3,D,358,1,787,d,s,s,2,4,75%,25%
sub6,3,D,365,1,664,n,s,s,3,2,75%,25%
sub6,3,D,366,1,671,d,r,s,3,3,75%,25%
sub6,3,D,367,1,523,n,s,s,3,4,75%,25%
sub6,3,D,375,1,645,n,r,s,1,2,75%,25%
sub6,3,D,376,1,598,d,s,s,1,3,75%,25%
sub6,3,D,377,1,696,n,r,s,1,4,75%,25%
sub6,3,D,385,1,683,n,r,s,2,2,75%,25%
sub6,3,D,386,1,737,d,s,s,2,3,75%,25%
sub6,3,D,387,1,826,d,s,s,2,4,75%,25%
sub6,3,D,395,1,583,n,r,s,2,2,75%,25%
sub6,3,D,396,1,1100,d,s,s,2,3,75%,25%
sub6,3,D,397,1,848,d,s,s,2,4,75%,25%
sub6,3,D,405,1,720,n,r,s,1,2,75%,25%
sub6,3,D,406,1,699,d,s,s,1,3,75%,25%
sub6,3,D,407,1,566,n,r,s,1,4,75%,25%
sub6,3,D,415,1,645,n,s,s,4,2,75%,25%
sub6,3,D,416,1,737,d,r,s,4,3,75%,25%
sub6,3,D,417,1,600,d,r,s,4,4,75%,25%
sub6,3,D,425,1,984,d,s,s,1,3,75%,25%
sub6,3,D,426,1,929,n,r,s,1,4,75%,25%
sub6,3,D,433,1,758,n,r,s,1,2,75%,25%
sub6,3,D,434,1,994,d,s,s,1,3,75%,25%
sub6,3,D,435,1,661,n,r,s,1,4,75%,25%
sub6,3,D,443,1,1043,n,s,s,3,2,75%,25%
sub6,3,D,444,1,748,d,r,s,3,3,75%,25%
sub6,3,D,445,1,643,n,s,s,3,4,75%,25%
sub6,3,D,453,1,759,d,r,s,4,3,75%,25%
sub6,3,D,454,1,1408,d,r,s,4,4,75%,25%
sub6,3,D,462,1,631,n,s,s,3,2,75%,25%
sub6,3,D,463,1,777,d,r,s,3,3,75%,25%
sub6,3,D,464,1,1114,n,s,s,3,4,75%,25%
sub6,3,D,472,1,643,n,s,s,3,2,75%,25%
sub6,3,D,473,1,1057,d,r,s,3,3,75%,25%
sub6,3,D,474,1,755,n,s,s,3,4,75%,25%
sub6,4,C,487,1,992,n,s,s,4,2,25%,25%
sub6,4,C,488,1,554,d,r,s,4,3,25%,25%
sub6,4,C,489,1,616,d,r,s,4,4,25%,25%
sub6,4,C,497,1,631,n,s,s,4,2,25%,25%
sub6,4,C,498,1,1118,d,r,s,4,3,25%,25%
sub6,4,C,499,1,858,d,r,s,4,4,25%,25%
sub6,4,C,506,1,543,n,r,s,2,2,25%,25%
sub6,4,C,507,1,651,d,s,s,2,3,25%,25%
sub6,4,C,508,1,736,d,s,s,2,4,25%,25%
sub6,4,C,514,1,907,n,r,s,2,2,25%,25%
sub6,4,C,515,1,768,d,s,s,2,3,25%,25%
sub6,4,C,516,1,817,d,s,s,2,4,25%,25%
sub6,4,C,524,1,699,n,s,s,3,2,25%,25%
sub6,4,C,525,1,1125,d,r,s,3,3,25%,25%
sub6,4,C,526,1,720,n,s,s,3,4,25%,25%
sub6,4,C,534,1,581,n,r,s,1,2,25%,25%
sub6,4,C,535,1,665,d,s,s,1,3,25%,25%
sub6,4,C,536,1,559,n,r,s,1,4,25%,25%
sub6,4,C,544,1,569,n,r,s,2,2,25%,25%
sub6,4,C,545,1,900,d,s,s,2,3,25%,25%
sub6,4,C,546,1,595,d,s,s,2,4,25%,25%
sub6,4,C,554,1,509,n,r,s,2,2,25%,25%
sub6,4,C,555,1,991,d,s,s,2,3,25%,25%
sub6,4,C,556,1,712,d,s,s,2,4,25%,25%
sub6,4,C,564,1,1955,n,r,s,1,2,25%,25%
sub6,4,C,565,1,1231,d,s,s,1,3,25%,25%
sub6,4,C,566,1,1190,n,r,s,1,4,25%,25%
sub6,4,C,573,1,599,n,s,s,4,2,25%,25%
sub6,4,C,574,1,713,d,r,s,4,3,25%,25%
sub6,4,C,575,1,632,d,r,s,4,4,25%,25%
sub6,4,C,583,1,702,n,r,s,1,2,25%,25%
sub6,4,C,584,1,777,d,s,s,1,3,25%,25%
sub6,4,C,585,1,461,n,r,s,1,4,25%,25%
sub6,4,C,593,1,1010,n,r,s,1,2,25%,25%
sub6,4,C,594,1,898,d,s,s,1,3,25%,25%
sub6,4,C,595,1,792,n,r,s,1,4,25%,25%
sub6,4,C,603,1,694,n,s,s,3,2,25%,25%
sub6,4,C,604,1,674,d,r,s,3,3,25%,25%
sub6,4,C,605,1,538,n,s,s,3,4,25%,25%
sub6,4,C,612,1,661,n,s,s,4,2,25%,25%
sub6,4,C,613,1,510,d,r,s,4,3,25%,25%
sub6,4,C,614,1,562,d,r,s,4,4,25%,25%
sub6,4,C,622,1,641,n,s,s,3,2,25%,25%
sub6,4,C,623,1,851,d,r,s,3,3,25%,25%
sub6,4,C,624,1,776,n,s,s,3,4,25%,25%
sub6,4,C,632,1,620,n,s,s,3,2,25%,25%
sub6,4,C,633,1,633,d,r,s,3,3,25%,25%
sub6,4,C,634,1,988,n,s,s,3,4,25%,25%
sub7,1,D,7,1,1341,n,s,s,3,2,75%,25%
sub7,1,D,8,1,1479,d,r,s,3,3,75%,25%
sub7,1,D,9,1,1158,n,s,s,3,4,75%,25%
sub7,1,D,17,1,1051,n,r,s,1,2,75%,25%
sub7,1,D,18,1,1159,d,s,s,1,3,75%,25%
sub7,1,D,19,1,1072,n,r,s,1,4,75%,25%
sub7,1,D,26,1,1348,n,r,s,1,2,75%,25%
sub7,1,D,27,1,1028,d,s,s,1,3,75%,25%
sub7,1,D,28,1,1480,n,r,s,1,4,75%,25%
sub7,1,D,36,1,1544,n,s,s,4,2,75%,25%
sub7,1,D,37,1,2221,d,r,s,4,3,75%,25%
sub7,1,D,38,1,1473,d,r,s,4,4,75%,25%
sub7,1,D,46,1,1216,n,s,s,3,2,75%,25%
sub7,1,D,47,1,1228,d,r,s,3,3,75%,25%
sub7,1,D,48,1,1329,n,s,s,3,4,75%,25%
sub7,1,D,56,1,1438,n,s,s,3,2,75%,25%
sub7,1,D,58,1,1166,n,s,s,3,4,75%,25%
sub7,1,D,66,1,1239,n,r,s,1,2,75%,25%
sub7,1,D,67,1,1437,d,s,s,1,3,75%,25%
sub7,1,D,68,1,1194,n,r,s,1,4,75%,25%
sub7,1,D,76,1,1736,n,r,s,2,2,75%,25%
sub7,1,D,77,1,1601,d,s,s,2,3,75%,25%
sub7,1,D,78,1,1531,d,s,s,2,4,75%,25%
sub7,1,D,86,1,1425,n,s,s,4,2,75%,25%
sub7,1,D,87,1,1150,d,r,s,4,3,75%,25%
sub7,1,D,88,1,1255,d,r,s,4,4,75%,25%
sub7,1,D,96,1,1176,n,r,s,2,2,75%,25%
sub7,1,D,97,1,1522,d,s,s,2,3,75%,25%
sub7,1,D,98,1,1087,d,s,s,2,4,75%,25%
sub7,1,D,106,1,1698,n,r,s,1,2,75%,25%
sub7,1,D,107,1,1275,d,s,s,1,3,75%,25%
sub7,1,D,108,1,1122,n,r,s,1,4,75%,25%
sub7,1,D,116,1,1719,n,s,s,4,2,75%,25%
sub7,1,D,117,1,1135,d,r,s,4,3,75%,25%
sub7,1,D,118,1,1014,d,r,s,4,4,75%,25%
sub7,1,D,126,1,1210,n,s,s,4,2,75%,25%
sub7,1,D,128,1,1280,d,r,s,4,4,75%,25%
sub7,1,D,134,1,888,n,r,s,2,2,75%,25%
sub7,1,D,135,1,1071,d,s,s,2,3,75%,25%
sub7,1,D,144,1,924,n,r,s,2,2,75%,25%
sub7,1,D,145,1,1089,d,s,s,2,3,75%,25%
sub7,1,D,146,1,1171,d,s,s,2,4,75%,25%
sub7,1,D,154,1,1113,n,s,s,3,2,75%,25%
sub7,1,D,155,1,1150,d,r,s,3,3,75%,25%
sub7,1,D,156,1,1271,n,s,s,3,4,75%,25%
sub7,2,A,167,1,1000,n,s,s,3,2,25%,75%
sub7,2,A,168,1,948,d,r,s,3,3,25%,75%
sub7,2,A,169,1,1069,n,s,s,3,4,25%,75%
sub7,2,A,177,1,766,n,r,s,1,2,25%,75%
sub7,2,A,178,1,1385,d,s,s,1,3,25%,75%
sub7,2,A,179,1,800,n,r,s,1,4,25%,75%
sub7,2,A,187,1,1185,n,r,s,1,2,25%,75%
sub7,2,A,188,1,1239,d,s,s,1,3,25%,75%
sub7,2,A,189,1,970,n,r,s,1,4,25%,75%
sub7,2,A,197,1,926,n,s,s,4,2,25%,75%
sub7,2,A,198,1,1252,d,r,s,4,3,25%,75%
sub7,2,A,199,1,968,d,r,s,4,4,25%,75%
sub7,2,A,207,1,875,n,s,s,3,2,25%,75%
sub7,2,A,208,1,1143,d,r,s,3,3,25%,75%
sub7,2,A,209,1,741,n,s,s,3,4,25%,75%
sub7,2,A,216,1,1311,n,s,s,3,2,25%,75%
sub7,2,A,217,1,1533,d,r,s,3,3,25%,75%
sub7,2,A,218,1,1336,n,s,s,3,4,25%,75%
sub7,2,A,226,1,827,n,r,s,1,2,25%,75%
sub7,2,A,227,1,1045,d,s,s,1,3,25%,75%
sub7,2,A,228,1,969,n,r,s,1,4,25%,75%
sub7,2,A,236,1,922,n,r,s,2,2,25%,75%
sub7,2,A,237,1,1133,d,s,s,2,3,25%,75%
sub7,2,A,238,1,680,d,s,s,2,4,25%,75%
sub7,2,A,246,1,647,n,s,s,4,2,25%,75%
sub7,2,A,247,1,945,d,r,s,4,3,25%,75%
sub7,2,A,248,1,836,d,r,s,4,4,25%,75%
sub7,2,A,256,1,878,n,r,s,2,2,25%,75%
sub7,2,A,257,1,1217,d,s,s,2,3,25%,75%
sub7,2,A,258,1,1161,d,s,s,2,4,25%,75%
sub7,2,A,266,1,685,n,r,s,1,2,25%,75%
sub7,2,A,267,1,1084,d,s,s,1,3,25%,75%
sub7,2,A,268,1,1330,n,r,s,1,4,25%,75%
sub7,2,A,276,1,1023,n,s,s,4,2,25%,75%
sub7,2,A,277,1,907,d,r,s,4,3,25%,75%
sub7,2,A,278,1,967,d,r,s,4,4,25%,75%
sub7,2,A,285,1,884,n,s,s,4,2,25%,75%
sub7,2,A,286,1,891,d,r,s,4,3,25%,75%
sub7,2,A,287,1,839,d,r,s,4,4,25%,75%
sub7,2,A,294,1,680,n,r,s,2,2,25%,75%
sub7,2,A,295,1,1334,d,s,s,2,3,25%,75%
sub7,2,A,296,1,1081,d,s,s,2,4,25%,75%
sub7,2,A,303,1,697,n,r,s,2,2,25%,75%
sub7,2,A,304,1,893,d,s,s,2,3,25%,75%
sub7,2,A,305,1,652,d,s,s,2,4,25%,75%
sub7,2,A,313,1,948,n,s,s,3,2,25%,75%
sub7,2,A,314,1,1100,d,r,s,3,3,25%,75%
sub7,2,A,315,1,1049,n,s,s,3,4,25%,75%
sub7,3,C,327,1,900,n,s,s,3,2,25%,25%
sub7,3,C,328,1,1023,d,r,s,3,3,25%,25%
sub7,3,C,329,1,1039,n,s,s,3,4,25%,25%
sub7,3,C,337,1,916,n,r,s,1,2,25%,25%
sub7,3,C,338,1,978,d,s,s,1,3,25%,25%
sub7,3,C,339,1,1075,n,r,s,1,4,25%,25%
sub7,3,C,346,1,746,n,r,s,1,2,25%,25%
sub7,3,C,347,1,802,d,s,s,1,3,25%,25%
sub7,3,C,348,1,703,n,r,s,1,4,25%,25%
sub7,3,C,356,1,1398,n,s,s,4,2,25%,25%
sub7,3,C,357,1,832,d,r,s,4,3,25%,25%
sub7,3,C,358,1,877,d,r,s,4,4,25%,25%
sub7,3,C,366,1,910,n,s,s,3,2,25%,25%
sub7,3,C,367,1,1521,d,r,s,3,3,25%,25%
sub7,3,C,368,1,894,n,s,s,3,4,25%,25%
sub7,3,C,376,1,1292,n,s,s,3,2,25%,25%
sub7,3,C,377,1,929,d,r,s,3,3,25%,25%
sub7,3,C,378,1,909,n,s,s,3,4,25%,25%
sub7,3,C,386,1,845,n,r,s,1,2,25%,25%
sub7,3,C,387,1,683,d,s,s,1,3,25%,25%
sub7,3,C,388,1,799,n,r,s,1,4,25%,25%
sub7,3,C,396,1,733,n,r,s,2,2,25%,25%
sub7,3,C,397,1,1449,d,s,s,2,3,25%,25%
sub7,3,C,398,1,878,d,s,s,2,4,25%,25%
sub7,3,C,406,1,780,n,s,s,4,2,25%,25%
sub7,3,C,408,1,1043,d,r,s,4,4,25%,25%
sub7,3,C,416,1,1253,n,r,s,2,2,25%,25%
sub7,3,C,417,1,1009,d,s,s,2,3,25%,25%
sub7,3,C,426,1,1043,n,r,s,1,2,25%,25%
sub7,3,C,427,1,1290,d,s,s,1,3,25%,25%
sub7,3,C,428,1,990,n,r,s,1,4,25%,25%
sub7,3,C,436,1,900,n,s,s,4,2,25%,25%
sub7,3,C,437,1,856,d,r,s,4,3,25%,25%
sub7,3,C,438,1,960,d,r,s,4,4,25%,25%
sub7,3,C,446,1,776,n,s,s,4,2,25%,25%
sub7,3,C,447,1,938,d,r,s,4,3,25%,25%
sub7,3,C,448,1,1011,d,r,s,4,4,25%,25%
sub7,3,C,455,1,705,n,r,s,2,2,25%,25%
sub7,3,C,456,1,1067,d,s,s,2,3,25%,25%
sub7,3,C,463,1,760,n,r,s,2,2,25%,25%
sub7,3,C,464,1,777,d,s,s,2,3,25%,25%
sub7,3,C,465,1,971,d,s,s,2,4,25%,25%
sub7,3,C,473,1,637,n,s,s,3,2,25%,25%
sub7,3,C,474,1,904,d,r,s,3,3,25%,25%
sub7,3,C,475,1,829,n,s,s,3,4,25%,25%
sub7,4,B,488,1,1123,d,r,s,3,3,75%,75%
sub7,4,B,489,1,1167,n,s,s,3,4,75%,75%
sub7,4,B,499,1,938,n,r,s,1,4,75%,75%
sub7,4,B,507,1,842,n,r,s,1,2,75%,75%
sub7,4,B,508,1,1214,d,s,s,1,3,75%,75%
sub7,4,B,509,1,744,n,r,s,1,4,75%,75%
sub7,4,B,517,1,745,n,s,s,4,2,75%,75%
sub7,4,B,518,1,753,d,r,s,4,3,75%,75%
sub7,4,B,519,1,894,d,r,s,4,4,75%,75%
sub7,4,B,527,1,1110,n,s,s,3,2,75%,75%
sub7,4,B,528,1,1049,d,r,s,3,3,75%,75%
sub7,4,B,529,1,773,n,s,s,3,4,75%,75%
sub7,4,B,537,1,1071,n,s,s,3,2,75%,75%
sub7,4,B,538,1,750,d,r,s,3,3,75%,75%
sub7,4,B,539,1,1261,n,s,s,3,4,75%,75%
sub7,4,B,547,1,905,n,r,s,1,2,75%,75%
sub7,4,B,548,1,995,d,s,s,1,3,75%,75%
sub7,4,B,549,1,629,n,r,s,1,4,75%,75%
sub7,4,B,557,1,886,n,r,s,2,2,75%,75%
sub7,4,B,558,1,875,d,s,s,2,3,75%,75%
sub7,4,B,559,1,881,d,s,s,2,4,75%,75%
sub7,4,B,567,1,882,n,s,s,4,2,75%,75%
sub7,4,B,568,1,895,d,r,s,4,3,75%,75%
sub7,4,B,569,1,943,d,r,s,4,4,75%,75%
sub7,4,B,575,1,816,n,r,s,2,2,75%,75%
sub7,4,B,576,1,1046,d,s,s,2,3,75%,75%
sub7,4,B,577,1,1283,d,s,s,2,4,75%,75%
sub7,4,B,583,1,755,n,r,s,1,2,75%,75%
sub7,4,B,584,1,900,d,s,s,1,3,75%,75%
sub7,4,B,585,1,721,n,r,s,1,4,75%,75%
sub7,4,B,594,1,857,d,r,s,4,3,75%,75%
sub7,4,B,595,1,925,d,r,s,4,4,75%,75%
sub7,4,B,603,1,1068,n,s,s,4,2,75%,75%
sub7,4,B,604,1,805,d,r,s,4,3,75%,75%
sub7,4,B,605,1,796,d,r,s,4,4,75%,75%
sub7,4,B,613,1,857,n,r,s,2,2,75%,75%
sub7,4,B,614,1,1553,d,s,s,2,3,75%,75%
sub7,4,B,615,1,698,d,s,s,2,4,75%,75%
sub7,4,B,623,1,851,n,r,s,2,2,75%,75%
sub7,4,B,624,1,1018,d,s,s,2,3,75%,75%
sub7,4,B,625,1,697,d,s,s,2,4,75%,75%
sub7,4,B,633,1,783,n,s,s,3,2,75%,75%
sub7,4,B,634,1,928,d,r,s,3,3,75%,75%
sub7,4,B,635,1,1189,n,s,s,3,4,75%,75%
sub8,1,D,7,1,1715,n,s,s,3,2,75%,25%
sub8,1,D,8,1,1142,d,r,s,3,3,75%,25%
sub8,1,D,9,1,1467,n,s,s,3,4,75%,25%
sub8,1,D,18,1,1602,d,s,s,2,3,75%,25%
sub8,1,D,19,1,1460,d,s,s,2,4,75%,25%
sub8,1,D,27,1,1081,n,r,s,1,2,75%,25%
sub8,1,D,29,1,2048,n,r,s,1,4,75%,25%
sub8,1,D,38,1,1430,d,r,s,4,3,75%,25%
sub8,1,D,39,1,1694,d,r,s,4,4,75%,25%
sub8,1,D,48,1,1248,d,s,s,2,3,75%,25%
sub8,1,D,49,1,1300,d,s,s,2,4,75%,25%
sub8,1,D,57,1,1594,n,s,s,3,2,75%,25%
sub8,1,D,58,1,1611,d,r,s,3,3,75%,25%
sub8,1,D,59,1,1396,n,s,s,3,4,75%,25%
sub8,1,D,67,1,1663,n,s,s,4,2,75%,25%
sub8,1,D,68,1,1435,d,r,s,4,3,75%,25%
sub8,1,D,69,1,1801,d,r,s,4,4,75%,25%
sub8,1,D,76,1,1411,n,r,s,2,2,75%,25%
sub8,1,D,77,1,1334,d,s,s,2,3,75%,25%
sub8,1,D,78,1,1264,d,s,s,2,4,75%,25%
sub8,1,D,86,1,1472,n,s,s,4,2,75%,25%
sub8,1,D,87,1,1380,d,r,s,4,3,75%,25%
sub8,1,D,88,1,1094,d,r,s,4,4,75%,25%
sub8,1,D,94,1,1344,n,s,s,4,2,75%,25%
sub8,1,D,95,1,1374,d,r,s,4,3,75%,25%
sub8,1,D,96,1,1016,d,r,s,4,4,75%,25%
sub8,1,D,104,1,960,n,r,s,1,2,75%,25%
sub8,1,D,105,1,1442,d,s,s,1,3,75%,25%
sub8,1,D,106,1,1357,n,r,s,1,4,75%,25%
sub8,1,D,114,1,1170,n,r,s,1,2,75%,25%
sub8,1,D,115,1,1228,d,s,s,1,3,75%,25%
sub8,1,D,116,1,1631,n,r,s,1,4,75%,25%
sub8,1,D,123,1,1188,n,r,s,2,2,75%,25%
sub8,1,D,124,1,1813,d,s,s,2,3,75%,25%
sub8,1,D,125,1,1318,d,s,s,2,4,75%,25%
sub8,1,D,133,1,2406,n,s,s,3,2,75%,25%
sub8,1,D,134,1,1268,d,r,s,3,3,75%,25%
sub8,1,D,142,1,2404,n,r,s,1,2,75%,25%
sub8,1,D,143,1,1383,d,s,s,1,3,75%,25%
sub8,1,D,144,1,1432,n,r,s,1,4,75%,25%
sub8,1,D,152,1,1117,n,s,s,3,2,75%,25%
sub8,1,D,153,1,1858,d,r,s,3,3,75%,25%
sub8,1,D,154,1,1200,n,s,s,3,4,75%,25%
sub8,2,A,165,1,1117,n,s,s,3,2,25%,75%
sub8,2,A,166,1,1449,d,r,s,3,3,25%,75%
sub8,2,A,167,1,1967,n,s,s,3,4,25%,75%
sub8,2,A,174,1,1101,n,r,s,2,2,25%,75%
sub8,2,A,175,1,1142,d,s,s,2,3,25%,75%
sub8,2,A,176,1,1194,d,s,s,2,4,25%,75%
sub8,2,A,184,1,1275,n,r,s,1,2,25%,75%
sub8,2,A,185,1,1889,d,s,s,1,3,25%,75%
sub8,2,A,186,1,1139,n,r,s,1,4,25%,75%
sub8,2,A,193,1,1300,n,s,s,4,2,25%,75%
sub8,2,A,194,1,1109,d,r,s,4,3,25%,75%
sub8,2,A,195,1,1379,d,r,s,4,4,25%,75%
sub8,2,A,203,1,1737,n,r,s,2,2,25%,75%
sub8,2,A,204,1,2240,d,s,s,2,3,25%,75%
sub8,2,A,205,1,2144,d,s,s,2,4,25%,75%
sub8,2,A,213,1,1784,n,s,s,3,2,25%,75%
sub8,2,A,214,1,1289,d,r,s,3,3,25%,75%
sub8,2,A,215,1,1002,n,s,s,3,4,25%,75%
sub8,2,A,223,1,1413,n,s,s,4,2,25%,75%
sub8,2,A,224,1,1357,d,r,s,4,3,25%,75%
sub8,2,A,225,1,1127,d,r,s,4,4,25%,75%
sub8,2,A,233,1,1366,n,r,s,2,2,25%,75%
sub8,2,A,235,1,1487,d,s,s,2,4,25%,75%
sub8,2,A,242,1,1107,n,s,s,4,2,25%,75%
sub8,2,A,243,1,2286,d,r,s,4,3,25%,75%
sub8,2,A,244,1,1485,d,r,s,4,4,25%,75%
sub8,2,A,252,1,1058,n,s,s,4,2,25%,75%
sub8,2,A,253,1,1195,d,r,s,4,3,25%,75%
sub8,2,A,254,1,1330,d,r,s,4,4,25%,75%
sub8,2,A,262,1,1340,n,r,s,1,2,25%,75%
sub8,2,A,263,1,1900,d,s,s,1,3,25%,75%
sub8,2,A,264,1,1251,n,r,s,1,4,25%,75%
sub8,2,A,272,1,1515,n,r,s,1,2,25%,75%
sub8,2,A,273,1,1471,d,s,s,1,3,25%,75%
sub8,2,A,274,1,1113,n,r,s,1,4,25%,75%
sub8,2,A,282,1,1499,n,r,s,2,2,25%,75%
sub8,2,A,283,1,1135,d,s,s,2,3,25%,75%
sub8,2,A,284,1,1234,d,s,s,2,4,25%,75%
sub8,2,A,292,1,2005,n,s,s,3,2,25%,75%
sub8,2,A,293,1,1346,d,r,s,3,3,25%,75%
sub8,2,A,294,1,1238,n,s,s,3,4,25%,75%
sub8,2,A,302,1,1700,n,r,s,1,2,25%,75%
sub8,2,A,303,1,1447,d,s,s,1,3,25%,75%
sub8,2,A,304,1,2187,n,r,s,1,4,25%,75%
sub8,2,A,312,1,1039,n,s,s,3,2,25%,75%
sub8,2,A,313,1,1870,d,r,s,3,3,25%,75%
sub8,3,C,327,1,1251,n,s,s,3,2,25%,25%
sub8,3,C,328,1,2136,d,r,s,3,3,25%,25%
sub8,3,C,329,1,1222,n,s,s,3,4,25%,25%
sub8,3,C,335,1,1574,n,r,s,2,2,25%,25%
sub8,3,C,336,1,1390,d,s,s,2,3,25%,25%
sub8,3,C,337,1,1771,d,s,s,2,4,25%,25%
sub8,3,C,345,1,1258,n,r,s,1,2,25%,25%
sub8,3,C,346,1,1049,d,s,s,1,3,25%,25%
sub8,3,C,347,1,1098,n,r,s,1,4,25%,25%
sub8,3,C,355,1,2296,n,s,s,4,2,25%,25%
sub8,3,C,356,1,1264,d,r,s,4,3,25%,25%
sub8,3,C,357,1,1464,d,r,s,4,4,25%,25%
sub8,3,C,365,1,1162,n,r,s,2,2,25%,25%
sub8,3,C,366,1,1524,d,s,s,2,3,25%,25%
sub8,3,C,367,1,1066,d,s,s,2,4,25%,25%
sub8,3,C,376,1,1818,d,r,s,3,3,25%,25%
sub8,3,C,377,1,1626,n,s,s,3,4,25%,25%
sub8,3,C,385,1,1203,n,s,s,4,2,25%,25%
sub8,3,C,386,1,1288,d,r,s,4,3,25%,25%
sub8,3,C,387,1,1181,d,r,s,4,4,25%,25%
sub8,3,C,395,1,1124,n,r,s,2,2,25%,25%
sub8,3,C,396,1,1305,d,s,s,2,3,25%,25%
sub8,3,C,397,1,1630,d,s,s,2,4,25%,25%
sub8,3,C,405,1,1409,n,s,s,4,2,25%,25%
sub8,3,C,407,1,1225,d,r,s,4,4,25%,25%
sub8,3,C,415,1,969,n,s,s,4,2,25%,25%
sub8,3,C,416,1,1584,d,r,s,4,3,25%,25%
sub8,3,C,425,1,1074,n,r,s,1,2,25%,25%
sub8,3,C,426,1,1591,d,s,s,1,3,25%,25%
sub8,3,C,427,1,1389,n,r,s,1,4,25%,25%
sub8,3,C,435,1,2125,n,r,s,1,2,25%,25%
sub8,3,C,436,1,2339,d,s,s,1,3,25%,25%
sub8,3,C,437,1,1089,n,r,s,1,4,25%,25%
sub8,3,C,445,1,1389,n,r,s,2,2,25%,25%
sub8,3,C,446,1,1597,d,s,s,2,3,25%,25%
sub8,3,C,447,1,1421,d,s,s,2,4,25%,25%
sub8,3,C,455,1,1614,n,s,s,3,2,25%,25%
sub8,3,C,456,1,1372,d,r,s,3,3,25%,25%
sub8,3,C,457,1,1724,n,s,s,3,4,25%,25%
sub8,3,C,465,1,1388,n,r,s,1,2,25%,25%
sub8,3,C,466,1,1203,d,s,s,1,3,25%,25%
sub8,3,C,467,1,1013,n,r,s,1,4,25%,25%
sub8,3,C,473,1,1780,n,s,s,3,2,25%,25%
sub8,3,C,474,1,1364,d,r,s,3,3,25%,25%
sub8,3,C,475,1,1614,n,s,s,3,4,25%,25%
sub8,4,B,485,1,1357,n,s,s,3,2,75%,75%
sub8,4,B,486,1,1540,d,r,s,3,3,75%,75%
sub8,4,B,487,1,1125,n,s,s,3,4,75%,75%
sub8,4,B,495,1,1011,n,r,s,2,2,75%,75%
sub8,4,B,496,1,1127,d,s,s,2,3,75%,75%
sub8,4,B,503,1,1651,n,r,s,1,2,75%,75%
sub8,4,B,513,1,1031,n,s,s,4,2,75%,75%
sub8,4,B,514,1,1158,d,r,s,4,3,75%,75%
sub8,4,B,515,1,1243,d,r,s,4,4,75%,75%
sub8,4,B,522,1,2408,n,r,s,2,2,75%,75%
sub8,4,B,523,1,1283,d,s,s,2,3,75%,75%
sub8,4,B,524,1,970,d,s,s,2,4,75%,75%
sub8,4,B,532,1,1060,n,s,s,3,2,75%,75%
sub8,4,B,533,1,1269,d,r,s,3,3,75%,75%
sub8,4,B,534,1,1753,n,s,s,3,4,75%,75%
sub8,4,B,542,1,1679,n,s,s,4,2,75%,75%
sub8,4,B,543,1,2047,d,r,s,4,3,75%,75%
sub8,4,B,544,1,1183,d,r,s,4,4,75%,75%
sub8,4,B,552,1,1017,n,r,s,2,2,75%,75%
sub8,4,B,553,1,1229,d,s,s,2,3,75%,75%
sub8,4,B,554,1,2077,d,s,s,2,4,75%,75%
sub8,4,B,562,1,1796,n,s,s,4,2,75%,75%
sub8,4,B,563,1,1060,d,r,s,4,3,75%,75%
sub8,4,B,564,1,1711,d,r,s,4,4,75%,75%
sub8,4,B,572,1,1391,n,s,s,4,2,75%,75%
sub8,4,B,573,1,1988,d,r,s,4,3,75%,75%
sub8,4,B,574,1,1108,d,r,s,4,4,75%,75%
sub8,4,B,582,1,1537,n,r,s,1,2,75%,75%
sub8,4,B,583,1,990,d,s,s,1,3,75%,75%
sub8,4,B,584,1,2388,n,r,s,1,4,75%,75%
sub8,4,B,592,1,1022,n,r,s,1,2,75%,75%
sub8,4,B,593,1,912,d,s,s,1,3,75%,75%
sub8,4,B,594,1,1201,n,r,s,1,4,75%,75%
sub8,4,B,602,1,1066,n,r,s,2,2,75%,75%
sub8,4,B,612,1,1593,n,s,s,3,2,75%,75%
sub8,4,B,613,1,1585,d,r,s,3,3,75%,75%
sub8,4,B,614,1,1287,n,s,s,3,4,75%,75%
sub8,4,B,622,1,979,n,r,s,1,2,75%,75%
sub8,4,B,623,1,1320,d,s,s,1,3,75%,75%
sub8,4,B,624,1,1324,n,r,s,1,4,75%,75%
sub8,4,B,632,1,1098,n,s,s,3,2,75%,75%
sub8,4,B,634,1,1224,n,s,s,3,4,75%,75%
sub9,1,B,6,1,965,n,s,s,3,2,75%,75%
sub9,1,B,7,1,668,d,r,s,3,3,75%,75%
sub9,1,B,8,1,733,n,s,s,3,4,75%,75%
sub9,1,B,15,1,659,n,r,s,2,2,75%,75%
sub9,1,B,16,1,1435,d,s,s,2,3,75%,75%
sub9,1,B,17,1,1242,d,s,s,2,4,75%,75%
sub9,1,B,25,1,908,n,r,s,1,2,75%,75%
sub9,1,B,26,1,898,d,s,s,1,3,75%,75%
sub9,1,B,27,1,1107,n,r,s,1,4,75%,75%
sub9,1,B,33,1,880,n,s,s,3,2,75%,75%
sub9,1,B,34,1,884,d,r,s,3,3,75%,75%
sub9,1,B,35,1,841,n,s,s,3,4,75%,75%
sub9,1,B,43,1,965,n,s,s,3,2,75%,75%
sub9,1,B,44,1,829,d,r,s,3,3,75%,75%
sub9,1,B,45,1,1408,n,s,s,3,4,75%,75%
sub9,1,B,53,1,765,n,r,s,2,2,75%,75%
sub9,1,B,54,1,2168,d,s,s,2,3,75%,75%
sub9,1,B,55,1,784,d,s,s,2,4,75%,75%
sub9,1,B,63,1,577,n,s,s,4,2,75%,75%
sub9,1,B,64,1,852,d,r,s,4,3,75%,75%
sub9,1,B,65,1,834,d,r,s,4,4,75%,75%
sub9,1,B,73,1,881,n,r,s,2,2,75%,75%
sub9,1,B,74,1,1026,d,s,s,2,3,75%,75%
sub9,1,B,75,1,1182,d,s,s,2,4,75%,75%
sub9,1,B,84,1,1238,d,r,s,4,3,75%,75%
sub9,1,B,94,1,1325,d,s,s,1,3,75%,75%
sub9,1,B,95,1,734,n,r,s,1,4,75%,75%
sub9,1,B,103,1,639,n,r,s,1,2,75%,75%
sub9,1,B,104,1,778,d,s,s,1,3,75%,75%
sub9,1,B,105,1,552,n,r,s,1,4,75%,75%
sub9,1,B,113,1,873,n,r,s,2,2,75%,75%
sub9,1,B,115,1,962,d,s,s,2,4,75%,75%
sub9,1,B,123,1,1018,n,s,s,3,2,75%,75%
sub9,1,B,124,1,858,d,r,s,3,3,75%,75%
sub9,1,B,133,1,1235,n,s,s,4,2,75%,75%
sub9,1,B,134,1,874,d,r,s,4,3,75%,75%
sub9,1,B,135,1,1373,d,r,s,4,4,75%,75%
sub9,1,B,144,1,1101,d,r,s,4,3,75%,75%
sub9,1,B,145,1,613,d,r,s,4,4,75%,75%
sub9,1,B,153,1,739,n,r,s,1,2,75%,75%
sub9,1,B,154,1,915,d,s,s,1,3,75%,75%
sub9,1,B,155,1,787,n,r,s,1,4,75%,75%
sub9,2,C,166,1,1275,n,s,s,3,2,25%,25%
sub9,2,C,167,1,815,d,r,s,3,3,25%,25%
sub9,2,C,168,1,892,n,s,s,3,4,25%,25%
sub9,2,C,176,1,641,n,r,s,2,2,25%,25%
sub9,2,C,177,1,1071,d,s,s,2,3,25%,25%
sub9,2,C,178,1,818,d,s,s,2,4,25%,25%
sub9,2,C,186,1,754,n,r,s,1,2,25%,25%
sub9,2,C,187,1,1425,d,s,s,1,3,25%,25%
sub9,2,C,188,1,993,n,r,s,1,4,25%,25%
sub9,2,C,197,1,713,d,r,s,3,3,25%,25%
sub9,2,C,198,1,1059,n,s,s,3,4,25%,25%
sub9,2,C,205,1,875,n,s,s,3,2,25%,25%
sub9,2,C,206,1,890,d,r,s,3,3,25%,25%
sub9,2,C,207,1,1500,n,s,s,3,4,25%,25%
sub9,2,C,215,1,918,n,r,s,2,2,25%,25%
sub9,2,C,216,1,857,d,s,s,2,3,25%,25%
sub9,2,C,217,1,976,d,s,s,2,4,25%,25%
sub9,2,C,225,1,802,n,s,s,4,2,25%,25%
sub9,2,C,227,1,1243,d,r,s,4,4,25%,25%
sub9,2,C,235,1,719,n,r,s,2,2,25%,25%
sub9,2,C,236,1,1206,d,s,s,2,3,25%,25%
sub9,2,C,237,1,862,d,s,s,2,4,25%,25%
sub9,2,C,245,1,773,n,s,s,4,2,25%,25%
sub9,2,C,246,1,733,d,r,s,4,3,25%,25%
sub9,2,C,247,1,703,d,r,s,4,4,25%,25%
sub9,2,C,254,1,650,n,r,s,1,2,25%,25%
sub9,2,C,255,1,773,d,s,s,1,3,25%,25%
sub9,2,C,256,1,514,n,r,s,1,4,25%,25%
sub9,2,C,263,1,650,n,r,s,1,2,25%,25%
sub9,2,C,264,1,687,d,s,s,1,3,25%,25%
sub9,2,C,265,1,629,n,r,s,1,4,25%,25%
sub9,2,C,272,1,572,n,r,s,2,2,25%,25%
sub9,2,C,274,1,814,d,s,s,2,4,25%,25%
sub9,2,C,282,1,691,n,s,s,3,2,25%,25%
sub9,2,C,283,1,1360,d,r,s,3,3,25%,25%
sub9,2,C,284,1,924,n,s,s,3,4,25%,25%
sub9,2,C,293,1,1002,d,r,s,4,3,25%,25%
sub9,2,C,294,1,573,d,r,s,4,4,25%,25%
sub9,2,C,302,1,653,n,s,s,4,2,25%,25%
sub9,2,C,304,1,1024,d,r,s,4,4,25%,25%
sub9,2,C,313,1,738,d,s,s,1,3,25%,25%
sub9,3,A,327,1,747,n,s,s,3,2,25%,75%
sub9,3,A,328,1,670,d,r,s,3,3,25%,75%
sub9,3,A,329,1,606,n,s,s,3,4,25%,75%
sub9,3,A,335,1,680,n,r,s,2,2,25%,75%
sub9,3,A,336,1,1068,d,s,s,2,3,25%,75%
sub9,3,A,337,1,740,d,s,s,2,4,25%,75%
sub9,3,A,345,1,728,n,r,s,1,2,25%,75%
sub9,3,A,346,1,740,d,s,s,1,3,25%,75%
sub9,3,A,347,1,693,n,r,s,1,4,25%,75%
sub9,3,A,355,1,753,n,s,s,3,2,25%,75%
sub9,3,A,356,1,725,d,r,s,3,3,25%,75%
sub9,3,A,357,1,1070,n,s,s,3,4,25%,75%
sub9,3,A,365,1,692,n,s,s,3,2,25%,75%
sub9,3,A,366,1,1407,d,r,s,3,3,25%,75%
sub9,3,A,367,1,626,n,s,s,3,4,25%,75%
sub9,3,A,373,1,695,n,r,s,2,2,25%,75%
sub9,3,A,374,1,1530,d,s,s,2,3,25%,75%
sub9,3,A,375,1,766,d,s,s,2,4,25%,75%
sub9,3,A,383,1,572,n,s,s,4,2,25%,75%
sub9,3,A,385,1,601,d,r,s,4,4,25%,75%
sub9,3,A,393,1,613,n,r,s,2,2,25%,75%
sub9,3,A,394,1,974,d,s,s,2,3,25%,75%
sub9,3,A,395,1,849,d,s,s,2,4,25%,75%
sub9,3,A,402,1,1200,n,s,s,4,2,25%,75%
sub9,3,A,403,1,1652,d,r,s,4,3,25%,75%
sub9,3,A,404,1,859,d,r,s,4,4,25%,75%
sub9,3,A,412,1,773,n,r,s,1,2,25%,75%
sub9,3,A,413,1,916,d,s,s,1,3,25%,75%
sub9,3,A,414,1,652,n,r,s,1,4,25%,75%
sub9,3,A,422,1,708,n,r,s,1,2,25%,75%
sub9,3,A,423,1,840,d,s,s,1,3,25%,75%
sub9,3,A,424,1,712,n,r,s,1,4,25%,75%
sub9,3,A,432,1,605,n,r,s,2,2,25%,75%
sub9,3,A,433,1,682,d,s,s,2,3,25%,75%
sub9,3,A,434,1,1101,d,s,s,2,4,25%,75%
sub9,3,A,442,1,819,n,s,s,3,2,25%,75%
sub9,3,A,443,1,903,d,r,s,3,3,25%,75%
sub9,3,A,444,1,1135,n,s,s,3,4,25%,75%
sub9,3,A,452,1,580,n,s,s,4,2,25%,75%
sub9,3,A,453,1,568,d,r,s,4,3,25%,75%
sub9,3,A,454,1,478,d,r,s,4,4,25%,75%
sub9,3,A,462,1,595,n,s,s,4,2,25%,75%
sub9,3,A,463,1,724,d,r,s,4,3,25%,75%
sub9,3,A,472,1,838,n,r,s,1,2,25%,75%
sub9,3,A,473,1,724,d,s,s,1,3,25%,75%
sub9,3,A,474,1,744,n,r,s,1,4,25%,75%
sub9,4,D,487,1,768,d,r,s,3,3,75%,25%
sub9,4,D,488,1,674,n,s,s,3,4,75%,25%
sub9,4,D,496,1,973,n,r,s,2,2,75%,25%
sub9,4,D,497,1,784,d,s,s,2,3,75%,25%
sub9,4,D,498,1,1818,d,s,s,2,4,75%,25%
sub9,4,D,507,1,734,d,s,s,1,3,75%,25%
sub9,4,D,516,1,808,n,s,s,3,2,75%,25%
sub9,4,D,518,1,1660,n,s,s,3,4,75%,25%
sub9,4,D,528,1,630,n,s,s,3,4,75%,25%
sub9,4,D,536,1,683,n,r,s,2,2,75%,25%
sub9,4,D,537,1,948,d,s,s,2,3,75%,25%
sub9,4,D,538,1,847,d,s,s,2,4,75%,25%
sub9,4,D,545,1,664,n,s,s,4,2,75%,25%
sub9,4,D,546,1,575,d,r,s,4,3,75%,25%
sub9,4,D,547,1,745,d,r,s,4,4,75%,25%
sub9,4,D,555,1,611,n,r,s,2,2,75%,25%
sub9,4,D,564,1,594,n,s,s,4,2,75%,25%
sub9,4,D,565,1,602,d,r,s,4,3,75%,25%
sub9,4,D,566,1,726,d,r,s,4,4,75%,25%
sub9,4,D,574,1,710,n,r,s,1,2,75%,25%
sub9,4,D,575,1,784,d,s,s,1,3,75%,25%
sub9,4,D,576,1,709,n,r,s,1,4,75%,25%
sub9,4,D,584,1,897,n,r,s,1,2,75%,25%
sub9,4,D,585,1,1139,d,s,s,1,3,75%,25%
sub9,4,D,586,1,857,n,r,s,1,4,75%,25%
sub9,4,D,593,1,567,n,r,s,2,2,75%,25%
sub9,4,D,594,1,1130,d,s,s,2,3,75%,25%
sub9,4,D,595,1,927,d,s,s,2,4,75%,25%
sub9,4,D,603,1,793,n,s,s,3,2,75%,25%
sub9,4,D,604,1,560,d,r,s,3,3,75%,25%
sub9,4,D,605,1,620,n,s,s,3,4,75%,25%
sub9,4,D,613,1,1089,n,s,s,4,2,75%,25%
sub9,4,D,615,1,913,d,r,s,4,4,75%,25%
sub9,4,D,622,1,538,n,s,s,4,2,75%,25%
sub9,4,D,624,1,589,d,r,s,4,4,75%,25%
sub9,4,D,632,1,718,n,r,s,1,2,75%,25%
sub9,4,D,633,1,763,d,s,s,1,3,75%,25%
sub9,4,D,634,1,745,n,r,s,1,4,75%,25%
sub10,1,A,7,1,1557,n,s,s,4,2,25%,75%
sub10,1,A,8,1,1382,d,r,s,4,3,25%,75%
sub10,1,A,9,1,2017,d,r,s,4,4,25%,75%
sub10,1,A,17,1,1647,n,s,s,3,2,25%,75%
sub10,1,A,19,1,1647,n,s,s,3,4,25%,75%
sub10,1,A,27,1,1000,n,r,s,2,2,25%,75%
sub10,1,A,29,1,1582,d,s,s,2,4,25%,75%
sub10,1,A,37,1,1956,n,s,s,3,2,25%,75%
sub10,1,A,38,1,1583,d,r,s,3,3,25%,75%
sub10,1,A,47,1,1165,n,r,s,1,2,25%,75%
sub10,1,A,48,1,1898,d,s,s,1,3,25%,75%
sub10,1,A,49,1,1971,n,r,s,1,4,25%,75%
sub10,1,A,56,1,1689,n,s,s,4,2,25%,75%
sub10,1,A,57,1,1748,d,r,s,4,3,25%,75%
sub10,1,A,58,1,1547,d,r,s,4,4,25%,75%
sub10,1,A,66,1,1338,n,r,s,2,2,25%,75%
sub10,1,A,67,1,1844,d,s,s,2,3,25%,75%
sub10,1,A,77,1,1719,d,s,s,1,3,25%,75%
sub10,1,A,78,1,1397,n,r,s,1,4,25%,75%
sub10,1,A,85,1,1810,n,r,s,2,2,25%,75%
sub10,1,A,86,1,1774,d,s,s,2,3,25%,75%
sub10,1,A,87,1,1937,d,s,s,2,4,25%,75%
sub10,1,A,97,1,1274,n,s,s,3,4,25%,75%
sub10,1,A,105,1,2214,n,r,s,2,2,25%,75%
sub10,1,A,106,1,1190,d,s,s,2,3,25%,75%
sub10,1,A,107,1,1729,d,s,s,2,4,25%,75%
sub10,1,A,115,1,2089,n,s,s,4,2,25%,75%
sub10,1,A,117,1,1710,d,r,s,4,4,25%,75%
sub10,1,A,125,1,2079,n,s,s,4,2,25%,75%
sub10,1,A,126,1,1824,d,r,s,4,3,25%,75%
sub10,1,A,127,1,2402,d,r,s,4,4,25%,75%
sub10,1,A,134,1,1922,n,r,s,1,2,25%,75%
sub10,1,A,135,1,1492,d,s,s,1,3,25%,75%
sub10,1,A,136,1,1171,n,r,s,1,4,25%,75%
sub10,1,A,143,1,2103,n,r,s,1,2,25%,75%
sub10,1,A,144,1,1577,d,s,s,1,3,25%,75%
sub10,1,A,145,1,1675,n,r,s,1,4,25%,75%
sub10,1,A,154,1,2022,d,r,s,3,3,25%,75%
sub10,1,A,155,1,1518,n,s,s,3,4,25%,75%
sub10,2,B,167,1,2034,n,s,s,4,2,75%,75%
sub10,2,B,168,1,2014,d,r,s,4,3,75%,75%
sub10,2,B,169,1,1625,d,r,s,4,4,75%,75%
sub10,2,B,177,1,1408,n,s,s,3,2,75%,75%
sub10,2,B,178,1,1184,d,r,s,3,3,75%,75%
sub10,2,B,179,1,1987,n,s,s,3,4,75%,75%
sub10,2,B,187,1,1230,n,r,s,2,2,75%,75%
sub10,2,B,188,1,1619,d,s,s,2,3,75%,75%
sub10,2,B,189,1,1630,d,s,s,2,4,75%,75%
sub10,2,B,196,1,1532,n,s,s,3,2,75%,75%
sub10,2,B,197,1,1944,d,r,s,3,3,75%,75%
sub10,2,B,198,1,1223,n,s,s,3,4,75%,75%
sub10,2,B,206,1,1292,n,r,s,1,2,75%,75%
sub10,2,B,208,1,1534,n,r,s,1,4,75%,75%
sub10,2,B,215,1,1294,n,s,s,4,2,75%,75%
sub10,2,B,216,1,1600,d,r,s,4,3,75%,75%
sub10,2,B,217,1,1329,d,r,s,4,4,75%,75%
sub10,2,B,225,1,1437,n,r,s,2,2,75%,75%
sub10,2,B,226,1,1517,d,s,s,2,3,75%,75%
sub10,2,B,227,1,1782,d,s,s,2,4,75%,75%
sub10,2,B,235,1,2126,n,r,s,1,2,75%,75%
sub10,2,B,236,1,1406,d,s,s,1,3,75%,75%
sub10,2,B,237,1,1341,n,r,s,1,4,75%,75%
sub10,2,B,245,1,1166,n,r,s,2,2,75%,75%
sub10,2,B,246,1,1781,d,s,s,2,3,75%,75%
sub10,2,B,247,1,1137,d,s,s,2,4,75%,75%
sub10,2,B,255,1,1540,n,s,s,3,2,75%,75%
sub10,2,B,256,1,1355,d,r,s,3,3,75%,75%
sub10,2,B,257,1,2068,n,s,s,3,4,75%,75%
sub10,2,B,265,1,1551,n,r,s,2,2,75%,75%
sub10,2,B,266,1,1440,d,s,s,2,3,75%,75%
sub10,2,B,267,1,1613,d,s,s,2,4,75%,75%
sub10,2,B,275,1,1122,n,s,s,4,2,75%,75%
sub10,2,B,276,1,1387,d,r,s,4,3,75%,75%
sub10,2,B,277,1,1160,d,r,s,4,4,75%,75%
sub10,2,B,285,1,2133,n,s,s,4,2,75%,75%
sub10,2,B,286,1,1856,d,r,s,4,3,75%,75%
sub10,2,B,287,1,1751,d,r,s,4,4,75%,75%
sub10,2,B,294,1,1236,n,r,s,1,2,75%,75%
sub10,2,B,295,1,1597,d,s,s,1,3,75%,75%
sub10,2,B,296,1,1176,n,r,s,1,4,75%,75%
sub10,2,B,302,1,1641,n,r,s,1,2,75%,75%
sub10,2,B,304,1,1568,n,r,s,1,4,75%,75%
sub10,2,B,312,1,1486,n,s,s,3,2,75%,75%
sub10,2,B,313,1,2192,d,r,s,3,3,75%,75%
sub10,2,B,314,1,1245,n,s,s,3,4,75%,75%
sub10,3,D,326,1,1708,n,s,s,4,2,75%,25%
sub10,3,D,327,1,1768,d,r,s,4,3,75%,25%
sub10,3,D,328,1,1808,d,r,s,4,4,75%,25%
sub10,3,D,336,1,1328,n,s,s,3,2,75%,25%
sub10,3,D,337,1,1245,d,r,s,3,3,75%,25%
sub10,3,D,338,1,1526,n,s,s,3,4,75%,25%
sub10,3,D,346,1,1204,n,r,s,2,2,75%,25%
sub10,3,D,347,1,2278,d,s,s,2,3,75%,25%
sub10,3,D,348,1,1601,d,s,s,2,4,75%,25%
sub10,3,D,356,1,1431,n,s,s,3,2,75%,25%
sub10,3,D,357,1,1468,d,r,s,3,3,75%,25%
sub10,3,D,366,1,1315,n,r,s,1,2,75%,25%
sub10,3,D,367,1,2087,d,s,s,1,3,75%,25%
sub10,3,D,368,1,2078,n,r,s,1,4,75%,25%
sub10,3,D,376,1,2332,n,s,s,4,2,75%,25%
sub10,3,D,378,1,1394,d,r,s,4,4,75%,25%
sub10,3,D,384,1,1250,n,r,s,2,2,75%,25%
sub10,3,D,385,1,1152,d,s,s,2,3,75%,25%
sub10,3,D,386,1,1352,d,s,s,2,4,75%,25%
sub10,3,D,394,1,1469,n,r,s,1,2,75%,25%
sub10,3,D,395,1,1347,d,s,s,1,3,75%,25%
sub10,3,D,396,1,1324,n,r,s,1,4,75%,25%
sub10,3,D,404,1,1405,n,r,s,2,2,75%,25%
sub10,3,D,405,1,1353,d,s,s,2,3,75%,25%
sub10,3,D,406,1,1859,d,s,s,2,4,75%,25%
sub10,3,D,414,1,1759,n,s,s,3,2,75%,25%
sub10,3,D,415,1,1796,d,r,s,3,3,75%,25%
sub10,3,D,416,1,1592,n,s,s,3,4,75%,25%
sub10,3,D,424,1,1248,n,r,s,2,2,75%,25%
sub10,3,D,426,1,1469,d,s,s,2,4,75%,25%
sub10,3,D,434,1,1771,n,s,s,4,2,75%,25%
sub10,3,D,435,1,1620,d,r,s,4,3,75%,25%
sub10,3,D,436,1,1293,d,r,s,4,4,75%,25%
sub10,3,D,444,1,2312,n,s,s,4,2,75%,25%
sub10,3,D,445,1,1516,d,r,s,4,3,75%,25%
sub10,3,D,446,1,1252,d,r,s,4,4,75%,25%
sub10,3,D,454,1,2134,n,r,s,1,2,75%,25%
sub10,3,D,455,1,1934,d,s,s,1,3,75%,25%
sub10,3,D,456,1,1546,n,r,s,1,4,75%,25%
sub10,3,D,464,1,1043,n,r,s,1,2,75%,25%
sub10,3,D,465,1,1954,d,s,s,1,3,75%,25%
sub10,3,D,466,1,1383,n,r,s,1,4,75%,25%
sub10,3,D,472,1,2063,n,s,s,3,2,75%,25%
sub10,3,D,473,1,1726,d,r,s,3,3,75%,25%
sub10,3,D,474,1,1181,n,s,s,3,4,75%,25%
sub10,4,C,486,1,1074,n,s,s,4,2,25%,25%
sub10,4,C,487,1,1368,d,r,s,4,3,25%,25%
sub10,4,C,488,1,1022,d,r,s,4,4,25%,25%
sub10,4,C,496,1,1840,n,s,s,3,2,25%,25%
sub10,4,C,497,1,2157,d,r,s,3,3,25%,25%
sub10,4,C,498,1,1531,n,s,s,3,4,25%,25%
sub10,4,C,506,1,964,n,r,s,2,2,25%,25%
sub10,4,C,507,1,1479,d,s,s,2,3,25%,25%
sub10,4,C,508,1,1336,d,s,s,2,4,25%,25%
sub10,4,C,516,1,1501,n,s,s,3,2,25%,25%
sub10,4,C,517,1,1347,d,r,s,3,3,25%,25%
sub10,4,C,518,1,1636,n,s,s,3,4,25%,25%
sub10,4,C,526,1,1330,n,r,s,1,2,25%,25%
sub10,4,C,527,1,1239,d,s,s,1,3,25%,25%
sub10,4,C,528,1,1600,n,r,s,1,4,25%,25%
sub10,4,C,536,1,1283,n,s,s,4,2,25%,25%
sub10,4,C,537,1,1399,d,r,s,4,3,25%,25%
sub10,4,C,538,1,1609,d,r,s,4,4,25%,25%
sub10,4,C,546,1,1418,n,r,s,2,2,25%,25%
sub10,4,C,547,1,1432,d,s,s,2,3,25%,25%
sub10,4,C,548,1,1869,d,s,s,2,4,25%,25%
sub10,4,C,556,1,1392,n,r,s,1,2,25%,25%
sub10,4,C,557,1,1262,d,s,s,1,3,25%,25%
sub10,4,C,558,1,1001,n,r,s,1,4,25%,25%
sub10,4,C,566,1,908,n,r,s,2,2,25%,25%
sub10,4,C,567,1,1873,d,s,s,2,3,25%,25%
sub10,4,C,568,1,1173,d,s,s,2,4,25%,25%
sub10,4,C,576,1,1423,n,s,s,3,2,25%,25%
sub10,4,C,578,1,1421,n,s,s,3,4,25%,25%
sub10,4,C,586,1,1456,n,r,s,2,2,25%,25%
sub10,4,C,587,1,1211,d,s,s,2,3,25%,25%
sub10,4,C,588,1,1704,d,s,s,2,4,25%,25%
sub10,4,C,594,1,1438,n,s,s,4,2,25%,25%
sub10,4,C,595,1,2015,d,r,s,4,3,25%,25%
sub10,4,C,596,1,1478,d,r,s,4,4,25%,25%
sub10,4,C,604,1,1145,n,s,s,4,2,25%,25%
sub10,4,C,605,1,1160,d,r,s,4,3,25%,25%
sub10,4,C,606,1,1066,d,r,s,4,4,25%,25%
sub10,4,C,613,1,1647,n,r,s,1,2,25%,25%
sub10,4,C,614,1,1999,d,s,s,1,3,25%,25%
sub10,4,C,615,1,1120,n,r,s,1,4,25%,25%
sub10,4,C,622,1,1481,n,r,s,1,2,25%,25%
sub10,4,C,623,1,1631,d,s,s,1,3,25%,25%
sub10,4,C,624,1,1676,n,r,s,1,4,25%,25%
sub10,4,C,632,1,1753,n,s,s,3,2,25%,25%
sub10,4,C,633,1,1512,d,r,s,3,3,25%,25%
sub11,1,A,7,1,1334,n,s,s,4,2,25%,75%
sub11,1,A,8,1,1422,d,r,s,4,3,25%,75%
sub11,1,A,9,1,1708,d,r,s,4,4,25%,75%
sub11,1,A,18,1,1676,d,r,s,3,3,25%,75%
sub11,1,A,19,1,1197,n,s,s,3,4,25%,75%
sub11,1,A,25,1,1813,n,s,s,3,2,25%,75%
sub11,1,A,26,1,1922,d,r,s,3,3,25%,75%
sub11,1,A,27,1,1206,n,s,s,3,4,25%,75%
sub11,1,A,33,1,1802,n,r,s,1,2,25%,75%
sub11,1,A,34,1,1273,d,s,s,1,3,25%,75%
sub11,1,A,35,1,1529,n,r,s,1,4,25%,75%
sub11,1,A,43,1,1328,n,r,s,2,2,25%,75%
sub11,1,A,44,1,1883,d,s,s,2,3,25%,75%
sub11,1,A,45,1,1503,d,s,s,2,4,25%,75%
sub11,1,A,54,1,1710,d,r,s,3,3,25%,75%
sub11,1,A,55,1,1624,n,s,s,3,4,25%,75%
sub11,1,A,63,1,1388,n,s,s,4,2,25%,75%
sub11,1,A,64,1,1431,d,r,s,4,3,25%,75%
sub11,1,A,65,1,1585,d,r,s,4,4,25%,75%
sub11,1,A,73,1,1518,n,r,s,2,2,25%,75%
sub11,1,A,74,1,1531,d,s,s,2,3,25%,75%
sub11,1,A,75,1,1414,d,s,s,2,4,25%,75%
sub11,1,A,83,1,1432,n,r,s,2,2,25%,75%
sub11,1,A,84,1,1709,d,s,s,2,3,25%,75%
sub11,1,A,85,1,1478,d,s,s,2,4,25%,75%
sub11,1,A,93,1,1329,n,r,s,1,2,25%,75%
sub11,1,A,94,1,1782,d,s,s,1,3,25%,75%
sub11,1,A,95,1,1276,n,r,s,1,4,25%,75%
sub11,1,A,103,1,1309,n,s,s,3,2,25%,75%
sub11,1,A,104,1,1269,d,r,s,3,3,25%,75%
sub11,1,A,105,1,1879,n,s,s,3,4,25%,75%
sub11,1,A,112,1,1109,n,s,s,4,2,25%,75%
sub11,1,A,114,1,1360,d,r,s,4,4,25%,75%
sub11,1,A,122,1,1237,n,s,s,4,2,25%,75%
sub11,1,A,124,1,1262,d,r,s,4,4,25%,75%
sub11,1,A,132,1,1592,n,r,s,2,2,25%,75%
sub11,1,A,133,1,1563,d,s,s,2,3,25%,75%
sub11,1,A,134,1,1556,d,s,s,2,4,25%,75%
sub11,1,A,143,1,2053,d,s,s,1,3,25%,75%
sub11,1,A,144,1,1383,n,r,s,1,4,25%,75%
sub11,1,A,152,1,995,n,r,s,1,2,25%,75%
sub11,1,A,154,1,2246,n,r,s,1,4,25%,75%
sub11,2,B,166,1,1730,n,s,s,4,2,75%,75%
sub11,2,B,167,1,1457,d,r,s,4,3,75%,75%
sub11,2,B,168,1,1259,d,r,s,4,4,75%,75%
sub11,2,B,176,1,1354,n,s,s,3,2,75%,75%
sub11,2,B,177,1,1528,d,r,s,3,3,75%,75%
sub11,2,B,178,1,1454,n,s,s,3,4,75%,75%
sub11,2,B,186,1,1397,n,s,s,3,2,75%,75%
sub11,2,B,187,1,1392,d,r,s,3,3,75%,75%
sub11,2,B,188,1,1331,n,s,s,3,4,75%,75%
sub11,2,B,196,1,1235,n,r,s,1,2,75%,75%
sub11,2,B,198,1,1214,n,r,s,1,4,75%,75%
sub11,2,B,215,1,1140,n,s,s,3,2,75%,75%
sub11,2,B,216,1,1407,d,r,s,3,3,75%,75%
sub11,2,B,217,1,1212,n,s,s,3,4,75%,75%
sub11,2,B,225,1,1107,n,s,s,4,2,75%,75%
sub11,2,B,226,1,1219,d,r,s,4,3,75%,75%
sub11,2,B,227,1,1569,d,r,s,4,4,75%,75%
sub11,2,B,234,1,1080,n,r,s,2,2,75%,75%
sub11,2,B,235,1,1288,d,s,s,2,3,75%,75%
sub11,2,B,236,1,2359,d,s,s,2,4,75%,75%
sub11,2,B,243,1,1127,n,r,s,2,2,75%,75%
sub11,2,B,244,1,1640,d,s,s,2,3,75%,75%
sub11,2,B,245,1,1292,d,s,s,2,4,75%,75%
sub11,2,B,252,1,1513,n,r,s,1,2,75%,75%
sub11,2,B,253,1,1592,d,s,s,1,3,75%,75%
sub11,2,B,254,1,1276,n,r,s,1,4,75%,75%
sub11,2,B,262,1,1392,n,s,s,3,2,75%,75%
sub11,2,B,263,1,1040,d,r,s,3,3,75%,75%
sub11,2,B,264,1,769,n,s,s,3,4,75%,75%
sub11,2,B,272,1,1546,n,s,s,4,2,75%,75%
sub11,2,B,273,1,1149,d,r,s,4,3,75%,75%
sub11,2,B,274,1,1564,d,r,s,4,4,75%,75%
sub11,2,B,282,1,1730,n,s,s,4,2,75%,75%
sub11,2,B,283,1,2181,d,r,s,4,3,75%,75%
sub11,2,B,284,1,1598,d,r,s,4,4,75%,75%
sub11,2,B,292,1,1160,n,r,s,2,2,75%,75%
sub11,2,B,293,1,1397,d,s,s,2,3,75%,75%
sub11,2,B,312,1,1255,n,r,s,1,2,75%,75%
sub11,2,B,313,1,1407,d,s,s,1,3,75%,75%
sub11,2,B,314,1,1696,n,r,s,1,4,75%,75%
sub11,3,D,326,1,1501,n,s,s,4,2,75%,25%
sub11,3,D,327,1,1503,d,r,s,4,3,75%,25%
sub11,3,D,328,1,1477,d,r,s,4,4,75%,25%
sub11,3,D,336,1,1565,n,s,s,3,2,75%,25%
sub11,3,D,337,1,1843,d,r,s,3,3,75%,25%
sub11,3,D,338,1,1312,n,s,s,3,4,75%,25%
sub11,3,D,346,1,1111,n,s,s,3,2,75%,25%
sub11,3,D,347,1,1370,d,r,s,3,3,75%,25%
sub11,3,D,348,1,1616,n,s,s,3,4,75%,25%
sub11,3,D,356,1,2391,n,r,s,1,2,75%,25%
sub11,3,D,357,1,1411,d,s,s,1,3,75%,25%
sub11,3,D,358,1,1354,n,r,s,1,4,75%,25%
sub11,3,D,366,1,1089,n,r,s,2,2,75%,25%
sub11,3,D,368,1,1058,d,s,s,2,4,75%,25%
sub11,3,D,375,1,1277,n,s,s,3,2,75%,25%
sub11,3,D,377,1,1858,n,s,s,3,4,75%,25%
sub11,3,D,387,1,1267,d,r,s,4,4,75%,25%
sub11,3,D,395,1,1119,n,r,s,2,2,75%,25%
sub11,3,D,396,1,1259,d,s,s,2,3,75%,25%
sub11,3,D,397,1,1675,d,s,s,2,4,75%,25%
sub11,3,D,407,1,1136,d,s,s,2,4,75%,25%
sub11,3,D,415,1,2438,n,r,s,1,2,75%,25%
sub11,3,D,416,1,1266,d,s,s,1,3,75%,25%
sub11,3,D,417,1,1519,n,r,s,1,4,75%,25%
sub11,3,D,424,1,1179,n,s,s,3,2,75%,25%
sub11,3,D,425,1,2382,d,r,s,3,3,75%,25%
sub11,3,D,442,1,1116,n,s,s,4,2,75%,25%
sub11,3,D,443,1,1281,d,r,s,4,3,75%,25%
sub11,3,D,444,1,1318,d,r,s,4,4,75%,25%
sub11,3,D,452,1,1522,n,r,s,2,2,75%,25%
sub11,3,D,453,1,1480,d,s,s,2,3,75%,25%
sub11,3,D,454,1,1278,d,s,s,2,4,75%,25%
sub11,3,D,472,1,2134,n,r,s,1,2,75%,25%
sub11,3,D,474,1,1699,n,r,s,1,4,75%,25%
sub11,4,C,487,1,1314,n,s,s,4,2,25%,25%
sub11,4,C,488,1,1556,d,r,s,4,3,25%,25%
sub11,4,C,489,1,1423,d,r,s,4,4,25%,25%
sub11,4,C,497,1,1231,n,s,s,3,2,25%,25%
sub11,4,C,498,1,1764,d,r,s,3,3,25%,25%
sub11,4,C,499,1,2307,n,s,s,3,4,25%,25%
sub11,4,C,505,1,861,n,s,s,3,2,25%,25%
sub11,4,C,506,1,1172,d,r,s,3,3,25%,25%
sub11,4,C,507,1,1650,n,s,s,3,4,25%,25%
sub11,4,C,515,1,1631,n,r,s,1,2,25%,25%
sub11,4,C,517,1,1445,n,r,s,1,4,25%,25%
sub11,4,C,525,1,1096,d,s,s,2,3,25%,25%
sub11,4,C,526,1,1431,d,s,s,2,4,25%,25%
sub11,4,C,534,1,1476,d,r,s,3,3,25%,25%
sub11,4,C,544,1,2347,d,r,s,4,3,25%,25%
sub11,4,C,545,1,1281,d,r,s,4,4,25%,25%
sub11,4,C,553,1,1178,n,r,s,2,2,25%,25%
sub11,4,C,554,1,1156,d,s,s,2,3,25%,25%
sub11,4,C,555,1,1159,d,s,s,2,4,25%,25%
sub11,4,C,563,1,985,n,r,s,2,2,25%,25%
sub11,4,C,564,1,1344,d,s,s,2,3,25%,25%
sub11,4,C,565,1,1405,d,s,s,2,4,25%,25%
sub11,4,C,593,1,1269,n,s,s,4,2,25%,25%
sub11,4,C,594,1,952,d,r,s,4,3,25%,25%
sub11,4,C,603,1,2166,n,s,s,4,2,25%,25%
sub11,4,C,612,1,1828,n,r,s,2,2,25%,25%
sub11,4,C,614,1,1677,d,s,s,2,4,25%,25%
sub11,4,C,622,1,1154,n,r,s,1,2,25%,25%
sub11,4,C,623,1,1215,d,s,s,1,3,25%,25%
sub11,4,C,624,1,1309,n,r,s,1,4,25%,25%
sub11,4,C,632,1,980,n,r,s,1,2,25%,25%
sub11,4,C,633,1,1657,d,s,s,1,3,25%,25%
sub11,4,C,634,1,1060,n,r,s,1,4,25%,25%
sub12,1,B,7,1,1377,n,r,s,2,2,75%,75%
sub12,1,B,8,1,1673,d,s,s,2,3,75%,75%
sub12,1,B,9,1,1719,d,s,s,2,4,75%,75%
sub12,1,B,17,1,1782,n,r,s,1,2,75%,75%
sub12,1,B,18,1,2266,d,s,s,1,3,75%,75%
sub12,1,B,19,1,1267,n,r,s,1,4,75%,75%
sub12,1,B,27,1,1479,n,r,s,2,2,75%,75%
sub12,1,B,28,1,2140,d,s,s,2,3,75%,75%
sub12,1,B,29,1,1280,d,s,s,2,4,75%,75%
sub12,1,B,37,1,1704,d,r,s,3,3,75%,75%
sub12,1,B,38,1,1813,n,s,s,3,4,75%,75%
sub12,1,B,46,1,1455,n,s,s,3,2,75%,75%
sub12,1,B,47,1,1626,d,r,s,3,3,75%,75%
sub12,1,B,48,1,1468,n,s,s,3,4,75%,75%
sub12,1,B,56,1,1677,n,r,s,1,2,75%,75%
sub12,1,B,58,1,1746,n,r,s,1,4,75%,75%
sub12,1,B,66,1,2249,n,s,s,4,2,75%,75%
sub12,1,B,67,1,2153,d,r,s,4,3,75%,75%
sub12,1,B,68,1,1704,d,r,s,4,4,75%,75%
sub12,1,B,76,1,1345,n,r,s,1,2,75%,75%
sub12,1,B,77,1,1280,d,s,s,1,3,75%,75%
sub12,1,B,78,1,1454,n,r,s,1,4,75%,75%
sub12,1,B,84,1,1828,n,r,s,2,2,75%,75%
sub12,1,B,85,1,1655,d,s,s,2,3,75%,75%
sub12,1,B,86,1,1837,d,s,s,2,4,75%,75%
sub12,1,B,94,1,1757,n,s,s,3,2,75%,75%
sub12,1,B,95,1,1624,d,r,s,3,3,75%,75%
sub12,1,B,96,1,1360,n,s,s,3,4,75%,75%
sub12,1,B,104,1,1945,n,s,s,4,2,75%,75%
sub12,1,B,105,1,1844,d,r,s,4,3,75%,75%
sub12,1,B,106,1,2032,d,r,s,4,4,75%,75%
sub12,1,B,114,1,1953,n,s,s,3,2,75%,75%
sub12,1,B,115,1,1811,d,r,s,3,3,75%,75%
sub12,1,B,116,1,1378,n,s,s,3,4,75%,75%
sub12,1,B,124,1,1609,n,s,s,4,2,75%,75%
sub12,1,B,125,1,1700,d,r,s,4,3,75%,75%
sub12,1,B,126,1,1501,d,r,s,4,4,75%,75%
sub12,1,B,134,1,1374,n,s,s,4,2,75%,75%
sub12,1,B,135,1,1468,d,r,s,4,3,75%,75%
sub12,1,B,136,1,1283,d,r,s,4,4,75%,75%
sub12,1,B,142,1,1376,n,r,s,2,2,75%,75%
sub12,1,B,144,1,1532,d,s,s,2,4,75%,75%
sub12,1,B,152,1,1877,n,r,s,1,2,75%,75%
sub12,1,B,154,1,1641,n,r,s,1,4,75%,75%
sub12,2,C,167,1,1189,n,r,s,2,2,25%,25%
sub12,2,C,168,1,2205,d,s,s,2,3,25%,25%
sub12,2,C,176,1,1750,n,r,s,1,2,25%,25%
sub12,2,C,177,1,2016,d,s,s,1,3,25%,25%
sub12,2,C,178,1,1374,n,r,s,1,4,25%,25%
sub12,2,C,186,1,1266,n,r,s,2,2,25%,25%
sub12,2,C,188,1,2172,d,s,s,2,4,25%,25%
sub12,2,C,196,1,1498,n,s,s,3,2,25%,25%
sub12,2,C,197,1,1716,d,r,s,3,3,25%,25%
sub12,2,C,198,1,1734,n,s,s,3,4,25%,25%
sub12,2,C,206,1,1533,n,s,s,3,2,25%,25%
sub12,2,C,207,1,1701,d,r,s,3,3,25%,25%
sub12,2,C,208,1,1553,n,s,s,3,4,25%,25%
sub12,2,C,216,1,1422,n,r,s,1,2,25%,25%
sub12,2,C,217,1,2223,d,s,s,1,3,25%,25%
sub12,2,C,218,1,1488,n,r,s,1,4,25%,25%
sub12,2,C,226,1,1454,n,s,s,4,2,25%,25%
sub12,2,C,227,1,1705,d,r,s,4,3,25%,25%
sub12,2,C,228,1,1283,d,r,s,4,4,25%,25%
sub12,2,C,236,1,1672,n,r,s,1,2,25%,25%
sub12,2,C,237,1,1673,d,s,s,1,3,25%,25%
sub12,2,C,238,1,1516,n,r,s,1,4,25%,25%
sub12,2,C,246,1,1307,n,r,s,2,2,25%,25%
sub12,2,C,248,1,1828,d,s,s,2,4,25%,25%
sub12,2,C,256,1,1986,n,s,s,3,2,25%,25%
sub12,2,C,257,1,1735,d,r,s,3,3,25%,25%
sub12,2,C,258,1,1641,n,s,s,3,4,25%,25%
sub12,2,C,266,1,1688,n,s,s,4,2,25%,25%
sub12,2,C,267,1,1280,d,r,s,4,3,25%,25%
sub12,2,C,268,1,1316,d,r,s,4,4,25%,25%
sub12,2,C,276,1,1456,n,s,s,3,2,25%,25%
sub12,2,C,277,1,1422,d,r,s,3,3,25%,25%
sub12,2,C,278,1,1374,n,s,s,3,4,25%,25%
sub12,2,C,286,1,2048,n,s,s,4,2,25%,25%
sub12,2,C,287,1,2219,d,r,s,4,3,25%,25%
sub12,2,C,288,1,1576,d,r,s,4,4,25%,25%
sub12,2,C,295,1,1766,n,s,s,4,2,25%,25%
sub12,2,C,296,1,1453,d,r,s,4,3,25%,25%
sub12,2,C,297,1,1485,d,r,s,4,4,25%,25%
sub12,2,C,305,1,1329,n,r,s,2,2,25%,25%
sub12,2,C,306,1,2016,d,s,s,2,3,25%,25%
sub12,2,C,307,1,1471,d,s,s,2,4,25%,25%
sub12,2,C,314,1,2094,n,r,s,1,2,25%,25%
sub12,2,C,315,1,1988,d,s,s,1,3,25%,25%
sub12,2,C,316,1,1344,n,r,s,1,4,25%,25%
sub12,3,A,327,1,1485,n,r,s,2,2,25%,75%
sub12,3,A,328,1,1470,d,s,s,2,3,25%,75%
sub12,3,A,329,1,1219,d,s,s,2,4,25%,75%
sub12,3,A,337,1,1622,n,r,s,1,2,25%,75%
sub12,3,A,338,1,1735,d,s,s,1,3,25%,75%
sub12,3,A,339,1,1438,n,r,s,1,4,25%,75%
sub12,3,A,347,1,1922,n,r,s,2,2,25%,75%
sub12,3,A,349,1,1251,d,s,s,2,4,25%,75%
sub12,3,A,357,1,1502,n,s,s,3,2,25%,75%
sub12,3,A,358,1,1392,d,r,s,3,3,25%,75%
sub12,3,A,359,1,1125,n,s,s,3,4,25%,75%
sub12,3,A,367,1,1192,n,s,s,3,2,25%,75%
sub12,3,A,369,1,1139,n,s,s,3,4,25%,75%
sub12,3,A,376,1,1348,n,r,s,1,2,25%,75%
sub12,3,A,377,1,1206,d,s,s,1,3,25%,75%
sub12,3,A,384,1,1453,n,s,s,4,2,25%,75%
sub12,3,A,385,1,1547,d,r,s,4,3,25%,75%
sub12,3,A,386,1,1358,d,r,s,4,4,25%,75%
sub12,3,A,394,1,1421,n,r,s,1,2,25%,75%
sub12,3,A,395,1,1532,d,s,s,1,3,25%,75%
sub12,3,A,396,1,1247,n,r,s,1,4,25%,75%
sub12,3,A,403,1,1149,n,r,s,2,2,25%,75%
sub12,3,A,404,1,1486,d,s,s,2,3,25%,75%
sub12,3,A,405,1,1388,d,s,s,2,4,25%,75%
sub12,3,A,414,1,1344,d,r,s,3,3,25%,75%
sub12,3,A,415,1,1553,n,s,s,3,4,25%,75%
sub12,3,A,423,1,1505,n,s,s,4,2,25%,75%
sub12,3,A,424,1,1721,d,r,s,4,3,25%,75%
sub12,3,A,425,1,1173,d,r,s,4,4,25%,75%
sub12,3,A,434,1,1248,d,r,s,3,3,25%,75%
sub12,3,A,435,1,1624,n,s,s,3,4,25%,75%
sub12,3,A,443,1,1361,n,s,s,4,2,25%,75%
sub12,3,A,444,1,1489,d,r,s,4,3,25%,75%
sub12,3,A,445,1,1456,d,r,s,4,4,25%,75%
sub12,3,A,453,1,1470,n,s,s,4,2,25%,75%
sub12,3,A,454,1,1907,d,r,s,4,3,25%,75%
sub12,3,A,455,1,1371,d,r,s,4,4,25%,75%
sub12,3,A,463,1,1236,n,r,s,2,2,25%,75%
sub12,3,A,464,1,2054,d,s,s,2,3,25%,75%
sub12,3,A,465,1,1545,d,s,s,2,4,25%,75%
sub12,3,A,473,1,1516,n,r,s,1,2,25%,75%
sub12,3,A,474,1,1345,d,s,s,1,3,25%,75%
sub12,3,A,475,1,1487,n,r,s,1,4,25%,75%
sub12,4,D,485,1,1232,n,r,s,2,2,75%,25%
sub12,4,D,486,1,1173,d,s,s,2,3,75%,25%
sub12,4,D,487,1,1093,d,s,s,2,4,75%,25%
sub12,4,D,495,1,1688,n,r,s,1,2,75%,25%
sub12,4,D,496,1,1521,d,s,s,1,3,75%,25%
sub12,4,D,497,1,1903,n,r,s,1,4,75%,25%
sub12,4,D,505,1,2042,n,r,s,2,2,75%,25%
sub12,4,D,506,1,2015,d,s,s,2,3,75%,25%
sub12,4,D,507,1,2139,d,s,s,2,4,75%,25%
sub12,4,D,514,1,1579,n,s,s,3,2,75%,25%
sub12,4,D,515,1,1345,d,r,s,3,3,75%,25%
sub12,4,D,516,1,1297,n,s,s,3,4,75%,25%
sub12,4,D,524,1,1206,n,s,s,3,2,75%,25%
sub12,4,D,525,1,1631,d,r,s,3,3,75%,25%
sub12,4,D,526,1,1422,n,s,s,3,4,75%,25%
sub12,4,D,534,1,1255,n,r,s,1,2,75%,25%
sub12,4,D,536,1,1215,n,r,s,1,4,75%,25%
sub12,4,D,544,1,1267,n,s,s,4,2,75%,25%
sub12,4,D,545,1,1724,d,r,s,4,3,75%,25%
sub12,4,D,546,1,1643,d,r,s,4,4,75%,25%
sub12,4,D,554,1,1203,n,r,s,1,2,75%,25%
sub12,4,D,564,1,1577,n,r,s,2,2,75%,25%
sub12,4,D,565,1,1668,d,s,s,2,3,75%,25%
sub12,4,D,566,1,1519,d,s,s,2,4,75%,25%
sub12,4,D,574,1,1251,n,s,s,3,2,75%,25%
sub12,4,D,575,1,1615,d,r,s,3,3,75%,25%
sub12,4,D,576,1,1135,n,s,s,3,4,75%,25%
sub12,4,D,584,1,1188,n,s,s,4,2,75%,25%
sub12,4,D,585,1,1548,d,r,s,4,3,75%,25%
sub12,4,D,586,1,1453,d,r,s,4,4,75%,25%
sub12,4,D,594,1,1221,n,s,s,3,2,75%,25%
sub12,4,D,595,1,1905,d,r,s,3,3,75%,25%
sub12,4,D,596,1,1458,n,s,s,3,4,75%,25%
sub12,4,D,604,1,1497,n,s,s,4,2,75%,25%
sub12,4,D,605,1,1405,d,r,s,4,3,75%,25%
sub12,4,D,606,1,1642,d,r,s,4,4,75%,25%
sub12,4,D,614,1,1469,n,s,s,4,2,75%,25%
sub12,4,D,615,1,1234,d,r,s,4,3,75%,25%
sub12,4,D,616,1,1344,d,r,s,4,4,75%,25%
sub12,4,D,624,1,1297,n,r,s,2,2,75%,25%
sub12,4,D,625,1,1581,d,s,s,2,3,75%,25%
sub12,4,D,626,1,1409,d,s,s,2,4,75%,25%
sub12,4,D,632,1,1365,n,r,s,1,2,75%,25%
sub12,4,D,633,1,1936,d,s,s,1,3,75%,25%
sub12,4,D,634,1,1363,n,r,s,1,4,75%,25%
sub13,1,A,8,1,1588,d,r,s,4,3,25%,75%
sub13,1,A,9,1,1519,d,r,s,4,4,25%,75%
sub13,1,A,17,1,1051,n,r,s,2,2,25%,75%
sub13,1,A,27,1,1301,n,r,s,1,2,25%,75%
sub13,1,A,28,1,1628,d,s,s,1,3,25%,75%
sub13,1,A,29,1,1499,n,r,s,1,4,25%,75%
sub13,1,A,37,1,1103,n,r,s,1,2,25%,75%
sub13,1,A,38,1,1396,d,s,s,1,3,25%,75%
sub13,1,A,39,1,1639,n,r,s,1,4,25%,75%
sub13,1,A,46,1,1478,n,s,s,3,2,25%,75%
sub13,1,A,47,1,1422,d,r,s,3,3,25%,75%
sub13,1,A,48,1,1764,n,s,s,3,4,25%,75%
sub13,1,A,55,1,1774,n,s,s,4,2,25%,75%
sub13,1,A,56,1,1413,d,r,s,4,3,25%,75%
sub13,1,A,64,1,1658,n,s,s,3,2,25%,75%
sub13,1,A,65,1,1738,d,r,s,3,3,25%,75%
sub13,1,A,66,1,1188,n,s,s,3,4,25%,75%
sub13,1,A,72,1,1132,n,r,s,1,2,25%,75%
sub13,1,A,74,1,1599,n,r,s,1,4,25%,75%
sub13,1,A,82,1,1110,n,s,s,4,2,25%,75%
sub13,1,A,83,1,1589,d,r,s,4,3,25%,75%
sub13,1,A,84,1,1498,d,r,s,4,4,25%,75%
sub13,1,A,92,1,1262,n,r,s,1,2,25%,75%
sub13,1,A,93,1,1312,d,s,s,1,3,25%,75%
sub13,1,A,94,1,959,n,r,s,1,4,25%,75%
sub13,1,A,102,1,1434,n,s,s,3,2,25%,75%
sub13,1,A,103,1,1656,d,r,s,3,3,25%,75%
sub13,1,A,104,1,1641,n,s,s,3,4,25%,75%
sub13,1,A,112,1,1231,n,r,s,2,2,25%,75%
sub13,1,A,114,1,1240,d,s,s,2,4,25%,75%
sub13,1,A,122,1,1251,n,s,s,4,2,25%,75%
sub13,1,A,123,1,1560,d,r,s,4,3,25%,75%
sub13,1,A,124,1,1263,d,r,s,4,4,25%,75%
sub13,1,A,132,1,1049,n,r,s,2,2,25%,75%
sub13,1,A,134,1,1753,d,s,s,2,4,25%,75%
sub13,1,A,142,1,1097,n,r,s,2,2,25%,75%
sub13,1,A,143,1,1710,d,s,s,2,3,25%,75%
sub13,1,A,144,1,1275,d,s,s,2,4,25%,75%
sub13,1,A,152,1,2187,n,s,s,3,2,25%,75%
sub13,1,A,153,1,1163,d,r,s,3,3,25%,75%
sub13,1,A,154,1,1721,n,s,s,3,4,25%,75%
sub13,2,B,167,1,1123,n,s,s,4,2,75%,75%
sub13,2,B,168,1,2016,d,r,s,4,3,75%,75%
sub13,2,B,169,1,1252,d,r,s,4,4,75%,75%
sub13,2,B,177,1,1061,n,r,s,2,2,75%,75%
sub13,2,B,178,1,1640,d,s,s,2,3,75%,75%
sub13,2,B,179,1,1358,d,s,s,2,4,75%,75%
sub13,2,B,187,1,1023,n,r,s,1,2,75%,75%
sub13,2,B,188,1,2208,d,s,s,1,3,75%,75%
sub13,2,B,189,1,1096,n,r,s,1,4,75%,75%
sub13,2,B,196,1,1134,n,r,s,1,2,75%,75%
sub13,2,B,197,1,1272,d,s,s,1,3,75%,75%
sub13,2,B,198,1,1371,n,r,s,1,4,75%,75%
sub13,2,B,204,1,1694,n,s,s,3,2,75%,75%
sub13,2,B,205,1,1042,d,r,s,3,3,75%,75%
sub13,2,B,206,1,1157,n,s,s,3,4,75%,75%
sub13,2,B,214,1,1266,n,s,s,4,2,75%,75%
sub13,2,B,215,1,1592,d,r,s,4,3,75%,75%
sub13,2,B,216,1,1228,d,r,s,4,4,75%,75%
sub13,2,B,224,1,1631,n,s,s,3,2,75%,75%
sub13,2,B,225,1,1380,d,r,s,3,3,75%,75%
sub13,2,B,226,1,1276,n,s,s,3,4,75%,75%
sub13,2,B,234,1,1803,n,r,s,1,2,75%,75%
sub13,2,B,235,1,1330,d,s,s,1,3,75%,75%
sub13,2,B,236,1,1778,n,r,s,1,4,75%,75%
sub13,2,B,244,1,1668,n,s,s,4,2,75%,75%
sub13,2,B,245,1,1427,d,r,s,4,3,75%,75%
sub13,2,B,246,1,1351,d,r,s,4,4,75%,75%
sub13,2,B,253,1,981,n,r,s,1,2,75%,75%
sub13,2,B,254,1,1149,d,s,s,1,3,75%,75%
sub13,2,B,255,1,1283,n,r,s,1,4,75%,75%
sub13,2,B,264,1,1098,d,r,s,3,3,75%,75%
sub13,2,B,273,1,1046,n,r,s,2,2,75%,75%
sub13,2,B,274,1,1533,d,s,s,2,3,75%,75%
sub13,2,B,275,1,1289,d,s,s,2,4,75%,75%
sub13,2,B,282,1,986,n,s,s,4,2,75%,75%
sub13,2,B,283,1,1218,d,r,s,4,3,75%,75%
sub13,2,B,284,1,1334,d,r,s,4,4,75%,75%
sub13,2,B,292,1,1509,n,r,s,2,2,75%,75%
sub13,2,B,293,1,1271,d,s,s,2,3,75%,75%
sub13,2,B,294,1,1491,d,s,s,2,4,75%,75%
sub13,2,B,302,1,1106,n,r,s,2,2,75%,75%
sub13,2,B,303,1,1331,d,s,s,2,3,75%,75%
sub13,2,B,304,1,1192,d,s,s,2,4,75%,75%
sub13,2,B,312,1,1731,n,s,s,3,2,75%,75%
sub13,2,B,313,1,1831,d,r,s,3,3,75%,75%
sub13,2,B,314,1,1066,n,s,s,3,4,75%,75%
sub13,3,D,327,1,1194,n,s,s,4,2,75%,25%
sub13,3,D,328,1,1355,d,r,s,4,3,75%,25%
sub13,3,D,329,1,1184,d,r,s,4,4,75%,25%
sub13,3,D,336,1,1299,n,r,s,2,2,75%,25%
sub13,3,D,337,1,1432,d,s,s,2,3,75%,25%
sub13,3,D,338,1,1149,d,s,s,2,4,75%,25%
sub13,3,D,345,1,1267,n,r,s,1,2,75%,25%
sub13,3,D,346,1,2294,d,s,s,1,3,75%,25%
sub13,3,D,347,1,1416,n,r,s,1,4,75%,25%
sub13,3,D,355,1,1245,n,r,s,1,2,75%,25%
sub13,3,D,356,1,1427,d,s,s,1,3,75%,25%
sub13,3,D,357,1,1135,n,r,s,1,4,75%,25%
sub13,3,D,365,1,1226,n,s,s,3,2,75%,25%
sub13,3,D,366,1,1047,d,r,s,3,3,75%,25%
sub13,3,D,367,1,1767,n,s,s,3,4,75%,25%
sub13,3,D,375,1,1080,n,s,s,4,2,75%,25%
sub13,3,D,376,1,1502,d,r,s,4,3,75%,25%
sub13,3,D,377,1,1606,d,r,s,4,4,75%,25%
sub13,3,D,385,1,1686,n,s,s,3,2,75%,25%
sub13,3,D,386,1,1287,d,r,s,3,3,75%,25%
sub13,3,D,387,1,1368,n,s,s,3,4,75%,25%
sub13,3,D,394,1,1170,n,r,s,1,2,75%,25%
sub13,3,D,395,1,1560,d,s,s,1,3,75%,25%
sub13,3,D,396,1,1020,n,r,s,1,4,75%,25%
sub13,3,D,404,1,2223,n,s,s,4,2,75%,25%
sub13,3,D,405,1,1934,d,r,s,4,3,75%,25%
sub13,3,D,406,1,1554,d,r,s,4,4,75%,25%
sub13,3,D,413,1,1281,n,r,s,1,2,75%,25%
sub13,3,D,414,1,1953,d,s,s,1,3,75%,25%
sub13,3,D,415,1,1058,n,r,s,1,4,75%,25%
sub13,3,D,423,1,1002,n,s,s,3,2,75%,25%
sub13,3,D,424,1,1142,d,r,s,3,3,75%,25%
sub13,3,D,425,1,1123,n,s,s,3,4,75%,25%
sub13,3,D,433,1,1396,n,r,s,2,2,75%,25%
sub13,3,D,434,1,1859,d,s,s,2,3,75%,25%
sub13,3,D,435,1,1162,d,s,s,2,4,75%,25%
sub13,3,D,443,1,1353,n,s,s,4,2,75%,25%
sub13,3,D,444,1,1281,d,r,s,4,3,75%,25%
sub13,3,D,445,1,1126,d,r,s,4,4,75%,25%
sub13,3,D,453,1,996,n,r,s,2,2,75%,25%
sub13,3,D,454,1,1463,d,s,s,2,3,75%,25%
sub13,3,D,455,1,1808,d,s,s,2,4,75%,25%
sub13,3,D,463,1,970,n,r,s,2,2,75%,25%
sub13,3,D,464,1,1908,d,s,s,2,3,75%,25%
sub13,3,D,465,1,1849,d,s,s,2,4,75%,25%
sub13,3,D,472,1,1113,n,s,s,3,2,75%,25%
sub13,3,D,473,1,1721,d,r,s,3,3,75%,25%
sub13,3,D,474,1,1215,n,s,s,3,4,75%,25%
sub13,4,C,486,1,1084,n,s,s,4,2,25%,25%
sub13,4,C,487,1,1168,d,r,s,4,3,25%,25%
sub13,4,C,488,1,1147,d,r,s,4,4,25%,25%
sub13,4,C,496,1,1173,n,r,s,2,2,25%,25%
sub13,4,C,497,1,1429,d,s,s,2,3,25%,25%
sub13,4,C,498,1,1643,d,s,s,2,4,25%,25%
sub13,4,C,506,1,1062,n,r,s,1,2,25%,25%
sub13,4,C,507,1,1402,d,s,s,1,3,25%,25%
sub13,4,C,508,1,1078,n,r,s,1,4,25%,25%
sub13,4,C,516,1,1257,n,r,s,1,2,25%,25%
sub13,4,C,517,1,1056,d,s,s,1,3,25%,25%
sub13,4,C,518,1,929,n,r,s,1,4,25%,25%
sub13,4,C,526,1,1155,n,s,s,3,2,25%,25%
sub13,4,C,527,1,1628,d,r,s,3,3,25%,25%
sub13,4,C,528,1,1327,n,s,s,3,4,25%,25%
sub13,4,C,536,1,1274,n,s,s,4,2,25%,25%
sub13,4,C,537,1,1109,d,r,s,4,3,25%,25%
sub13,4,C,538,1,1433,d,r,s,4,4,25%,25%
sub13,4,C,546,1,1242,n,s,s,3,2,25%,25%
sub13,4,C,547,1,967,d,r,s,3,3,25%,25%
sub13,4,C,548,1,1403,n,s,s,3,4,25%,25%
sub13,4,C,554,1,1458,n,r,s,1,2,25%,25%
sub13,4,C,555,1,1118,d,s,s,1,3,25%,25%
sub13,4,C,563,1,1287,n,s,s,4,2,25%,25%
sub13,4,C,564,1,1072,d,r,s,4,3,25%,25%
sub13,4,C,565,1,1056,d,r,s,4,4,25%,25%
sub13,4,C,573,1,1430,n,r,s,1,2,25%,25%
sub13,4,C,574,1,1356,d,s,s,1,3,25%,25%
sub13,4,C,575,1,1166,n,r,s,1,4,25%,25%
sub13,4,C,583,1,1116,n,s,s,3,2,25%,25%
sub13,4,C,584,1,1444,d,r,s,3,3,25%,25%
sub13,4,C,585,1,1413,n,s,s,3,4,25%,25%
sub13,4,C,592,1,1091,n,r,s,2,2,25%,25%
sub13,4,C,593,1,1325,d,s,s,2,3,25%,25%
sub13,4,C,594,1,1339,d,s,s,2,4,25%,25%
sub13,4,C,602,1,1051,n,s,s,4,2,25%,25%
sub13,4,C,603,1,964,d,r,s,4,3,25%,25%
sub13,4,C,604,1,1121,d,r,s,4,4,25%,25%
sub13,4,C,612,1,1221,n,r,s,2,2,25%,25%
sub13,4,C,613,1,1500,d,s,s,2,3,25%,25%
sub13,4,C,614,1,1403,d,s,s,2,4,25%,25%
sub13,4,C,622,1,1073,n,r,s,2,2,25%,25%
sub13,4,C,623,1,1741,d,s,s,2,3,25%,25%
sub13,4,C,624,1,1665,d,s,s,2,4,25%,25%
sub13,4,C,632,1,1132,n,s,s,3,2,25%,25%
sub13,4,C,633,1,1243,d,r,s,3,3,25%,25%
sub14,1,A,7,1,1139,n,s,s,3,2,25%,75%
sub14,1,A,8,1,1027,d,r,s,3,3,25%,75%
sub14,1,A,9,1,1329,n,s,s,3,4,25%,75%
sub14,1,A,15,1,1338,n,r,s,2,2,25%,75%
sub14,1,A,16,1,1330,d,s,s,2,3,25%,75%
sub14,1,A,17,1,996,d,s,s,2,4,25%,75%
sub14,1,A,25,1,1016,n,s,s,4,2,25%,75%
sub14,1,A,27,1,1619,d,r,s,4,4,25%,75%
sub14,1,A,35,1,815,n,r,s,2,2,25%,75%
sub14,1,A,37,1,1587,d,s,s,2,4,25%,75%
sub14,1,A,45,1,915,n,r,s,2,2,25%,75%
sub14,1,A,46,1,1318,d,s,s,2,3,25%,75%
sub14,1,A,47,1,1096,d,s,s,2,4,25%,75%
sub14,1,A,56,1,1914,d,r,s,4,3,25%,75%
sub14,1,A,65,1,1461,n,s,s,4,2,25%,75%
sub14,1,A,77,1,1238,n,r,s,1,4,25%,75%
sub14,1,A,86,1,1814,d,s,s,1,3,25%,75%
sub14,1,A,87,1,1121,n,r,s,1,4,25%,75%
sub14,1,A,95,1,960,n,r,s,1,2,25%,75%
sub14,1,A,96,1,832,d,s,s,1,3,25%,75%
sub14,1,A,104,1,1444,n,s,s,3,2,25%,75%
sub14,1,A,105,1,1264,d,r,s,3,3,25%,75%
sub14,1,A,106,1,1381,n,s,s,3,4,25%,75%
sub14,1,A,114,1,974,n,r,s,1,2,25%,75%
sub14,1,A,115,1,1239,d,s,s,1,3,25%,75%
sub14,1,A,116,1,1380,n,r,s,1,4,25%,75%
sub14,1,A,125,1,891,d,s,s,2,3,25%,75%
sub14,1,A,126,1,1146,d,s,s,2,4,25%,75%
sub14,1,A,133,1,1506,d,r,s,4,3,25%,75%
sub14,1,A,134,1,696,d,r,s,4,4,25%,75%
sub14,1,A,142,1,506,n,s,s,3,2,25%,75%
sub14,1,A,143,1,507,d,r,s,3,3,25%,75%
sub14,1,A,152,1,936,n,s,s,3,2,25%,75%
sub14,1,A,153,1,1030,d,r,s,3,3,25%,75%
sub14,1,A,154,1,1147,n,s,s,3,4,25%,75%
sub14,2,B,167,1,1052,n,s,s,3,2,75%,75%
sub14,2,B,168,1,1506,d,r,s,3,3,75%,75%
sub14,2,B,169,1,1111,n,s,s,3,4,75%,75%
sub14,2,B,176,1,828,n,r,s,2,2,75%,75%
sub14,2,B,177,1,2426,d,s,s,2,3,75%,75%
sub14,2,B,178,1,1258,d,s,s,2,4,75%,75%
sub14,2,B,186,1,2127,n,s,s,4,2,75%,75%
sub14,2,B,187,1,2123,d,r,s,4,3,75%,75%
sub14,2,B,188,1,1056,d,r,s,4,4,75%,75%
sub14,2,B,195,1,1028,n,r,s,2,2,75%,75%
sub14,2,B,196,1,1125,d,s,s,2,3,75%,75%
sub14,2,B,197,1,1423,d,s,s,2,4,75%,75%
sub14,2,B,205,1,1019,n,r,s,2,2,75%,75%
sub14,2,B,207,1,1483,d,s,s,2,4,75%,75%
sub14,2,B,215,1,1025,n,s,s,4,2,75%,75%
sub14,2,B,216,1,806,d,r,s,4,3,75%,75%
sub14,2,B,217,1,1379,d,r,s,4,4,75%,75%
sub14,2,B,224,1,1825,n,s,s,4,2,75%,75%
sub14,2,B,225,1,1503,d,r,s,4,3,75%,75%
sub14,2,B,226,1,1210,d,r,s,4,4,75%,75%
sub14,2,B,232,1,1062,n,r,s,1,2,75%,75%
sub14,2,B,233,1,1232,d,s,s,1,3,75%,75%
sub14,2,B,234,1,1383,n,r,s,1,4,75%,75%
sub14,2,B,242,1,807,n,r,s,1,2,75%,75%
sub14,2,B,243,1,1006,d,s,s,1,3,75%,75%
sub14,2,B,244,1,1136,n,r,s,1,4,75%,75%
sub14,2,B,252,1,987,n,r,s,1,2,75%,75%
sub14,2,B,253,1,1189,d,s,s,1,3,75%,75%
sub14,2,B,254,1,653,n,r,s,1,4,75%,75%
sub14,2,B,263,1,1288,d,r,s,3,3,75%,75%
sub14,2,B,264,1,1188,n,s,s,3,4,75%,75%
sub14,2,B,272,1,804,n,r,s,1,2,75%,75%
sub14,2,B,274,1,1335,n,r,s,1,4,75%,75%
sub14,2,B,282,1,835,n,r,s,2,2,75%,75%
sub14,2,B,283,1,1212,d,s,s,2,3,75%,75%
sub14,2,B,292,1,759,n,s,s,4,2,75%,75%
sub14,2,B,293,1,747,d,r,s,4,3,75%,75%
sub14,2,B,294,1,709,d,r,s,4,4,75%,75%
sub14,2,B,302,1,811,n,s,s,3,2,75%,75%
sub14,2,B,303,1,1191,d,r,s,3,3,75%,75%
sub14,2,B,304,1,972,n,s,s,3,4,75%,75%
sub14,2,B,312,1,827,n,s,s,3,2,75%,75%
sub14,2,B,313,1,758,d,r,s,3,3,75%,75%
sub14,3,D,327,1,851,n,s,s,3,2,75%,25%
sub14,3,D,328,1,2028,d,r,s,3,3,75%,25%
sub14,3,D,329,1,1458,n,s,s,3,4,75%,25%
sub14,3,D,337,1,572,n,r,s,2,2,75%,25%
sub14,3,D,338,1,942,d,s,s,2,3,75%,25%
sub14,3,D,339,1,677,d,s,s,2,4,75%,25%
sub14,3,D,347,1,1165,n,s,s,4,2,75%,25%
sub14,3,D,348,1,1526,d,r,s,4,3,75%,25%
sub14,3,D,349,1,2115,d,r,s,4,4,75%,25%
sub14,3,D,357,1,1116,n,r,s,2,2,75%,25%
sub14,3,D,359,1,1228,d,s,s,2,4,75%,25%
sub14,3,D,366,1,661,n,r,s,2,2,75%,25%
sub14,3,D,367,1,1078,d,s,s,2,3,75%,25%
sub14,3,D,368,1,939,d,s,s,2,4,75%,25%
sub14,3,D,376,1,907,n,s,s,4,2,75%,25%
sub14,3,D,377,1,1146,d,r,s,4,3,75%,25%
sub14,3,D,378,1,1055,d,r,s,4,4,75%,25%
sub14,3,D,385,1,738,n,s,s,4,2,75%,25%
sub14,3,D,386,1,1476,d,r,s,4,3,75%,25%
sub14,3,D,387,1,638,d,r,s,4,4,75%,25%
sub14,3,D,395,1,563,n,r,s,1,2,75%,25%
sub14,3,D,397,1,1405,n,r,s,1,4,75%,25%
sub14,3,D,404,1,800,n,r,s,1,2,75%,25%
sub14,3,D,405,1,1195,d,s,s,1,3,75%,25%
sub14,3,D,406,1,1248,n,r,s,1,4,75%,25%
sub14,3,D,414,1,1724,n,r,s,1,2,75%,25%
sub14,3,D,415,1,831,d,s,s,1,3,75%,25%
sub14,3,D,416,1,841,n,r,s,1,4,75%,25%
sub14,3,D,424,1,1053,n,s,s,3,2,75%,25%
sub14,3,D,425,1,991,d,r,s,3,3,75%,25%
sub14,3,D,426,1,1018,n,s,s,3,4,75%,25%
sub14,3,D,433,1,985,n,r,s,1,2,75%,25%
sub14,3,D,434,1,1168,d,s,s,1,3,75%,25%
sub14,3,D,435,1,657,n,r,s,1,4,75%,25%
sub14,3,D,443,1,878,n,r,s,2,2,75%,25%
sub14,3,D,444,1,972,d,s,s,2,3,75%,25%
sub14,3,D,445,1,789,d,s,s,2,4,75%,25%
sub14,3,D,453,1,1110,n,s,s,4,2,75%,25%
sub14,3,D,454,1,1197,d,r,s,4,3,75%,25%
sub14,3,D,455,1,753,d,r,s,4,4,75%,25%
sub14,3,D,463,1,1043,n,s,s,3,2,75%,25%
sub14,3,D,464,1,1072,d,r,s,3,3,75%,25%
sub14,3,D,465,1,676,n,s,s,3,4,75%,25%
sub14,3,D,473,1,1169,n,s,s,3,2,75%,25%
sub14,3,D,474,1,908,d,r,s,3,3,75%,25%
sub14,3,D,475,1,1039,n,s,s,3,4,75%,25%
sub14,4,C,487,1,993,n,s,s,3,2,25%,25%
sub14,4,C,488,1,834,d,r,s,3,3,25%,25%
sub14,4,C,489,1,855,n,s,s,3,4,25%,25%
sub14,4,C,498,1,1453,d,s,s,2,3,25%,25%
sub14,4,C,499,1,1103,d,s,s,2,4,25%,25%
sub14,4,C,507,1,981,n,s,s,4,2,25%,25%
sub14,4,C,508,1,1447,d,r,s,4,3,25%,25%
sub14,4,C,509,1,1181,d,r,s,4,4,25%,25%
sub14,4,C,517,1,530,n,r,s,2,2,25%,25%
sub14,4,C,518,1,849,d,s,s,2,3,25%,25%
sub14,4,C,527,1,921,n,r,s,2,2,25%,25%
sub14,4,C,528,1,914,d,s,s,2,3,25%,25%
sub14,4,C,529,1,1657,d,s,s,2,4,25%,25%
sub14,4,C,537,1,851,n,s,s,4,2,25%,25%
sub14,4,C,538,1,1410,d,r,s,4,3,25%,25%
sub14,4,C,539,1,1093,d,r,s,4,4,25%,25%
sub14,4,C,547,1,855,n,s,s,4,2,25%,25%
sub14,4,C,548,1,793,d,r,s,4,3,25%,25%
sub14,4,C,549,1,827,d,r,s,4,4,25%,25%
sub14,4,C,556,1,982,n,r,s,1,2,25%,25%
sub14,4,C,558,1,1085,n,r,s,1,4,25%,25%
sub14,4,C,566,1,1572,n,r,s,1,2,25%,25%
sub14,4,C,567,1,1218,d,s,s,1,3,25%,25%
sub14,4,C,568,1,916,n,r,s,1,4,25%,25%
sub14,4,C,575,1,861,n,r,s,1,2,25%,25%
sub14,4,C,576,1,1367,d,s,s,1,3,25%,25%
sub14,4,C,577,1,707,n,r,s,1,4,25%,25%
sub14,4,C,585,1,808,n,s,s,3,2,25%,25%
sub14,4,C,586,1,990,d,r,s,3,3,25%,25%
sub14,4,C,587,1,766,n,s,s,3,4,25%,25%
sub14,4,C,595,1,1455,n,r,s,1,2,25%,25%
sub14,4,C,596,1,802,d,s,s,1,3,25%,25%
sub14,4,C,597,1,795,n,r,s,1,4,25%,25%
sub14,4,C,604,1,734,n,r,s,2,2,25%,25%
sub14,4,C,605,1,949,d,s,s,2,3,25%,25%
sub14,4,C,606,1,723,d,s,s,2,4,25%,25%
sub14,4,C,613,1,686,n,s,s,4,2,25%,25%
sub14,4,C,614,1,717,d,r,s,4,3,25%,25%
sub14,4,C,615,1,1152,d,r,s,4,4,25%,25%
sub14,4,C,622,1,588,n,s,s,3,2,25%,25%
sub14,4,C,624,1,1490,n,s,s,3,4,25%,25%
sub14,4,C,633,1,782,d,r,s,3,3,25%,25%
sub14,4,C,634,1,696,n,s,s,3,4,25%,25%
sub15,1,B,7,1,1263,n,s,s,4,2,75%,75%
sub15,1,B,8,1,907,d,r,s,4,3,75%,75%
sub15,1,B,9,1,1093,d,r,s,4,4,75%,75%
sub15,1,B,17,1,926,n,r,s,2,2,75%,75%
sub15,1,B,18,1,1351,d,s,s,2,3,75%,75%
sub15,1,B,19,1,845,d,s,s,2,4,75%,75%
sub15,1,B,27,1,1246,n,s,s,3,2,75%,75%
sub15,1,B,28,1,794,d,r,s,3,3,75%,75%
sub15,1,B,29,1,940,n,s,s,3,4,75%,75%
sub15,1,B,37,1,961,n,s,s,4,2,75%,75%
sub15,1,B,38,1,2269,d,r,s,4,3,75%,75%
sub15,1,B,39,1,1790,d,r,s,4,4,75%,75%
sub15,1,B,47,1,654,n,r,s,2,2,75%,75%
sub15,1,B,48,1,747,d,s,s,2,3,75%,75%
sub15,1,B,49,1,1790,d,s,s,2,4,75%,75%
sub15,1,B,57,1,712,n,r,s,2,2,75%,75%
sub15,1,B,58,1,1245,d,s,s,2,3,75%,75%
sub15,1,B,59,1,897,d,s,s,2,4,75%,75%
sub15,1,B,65,1,1134,n,s,s,4,2,75%,75%
sub15,1,B,66,1,1447,d,r,s,4,3,75%,75%
sub15,1,B,67,1,901,d,r,s,4,4,75%,75%
sub15,1,B,75,1,1178,n,r,s,1,2,75%,75%
sub15,1,B,76,1,1530,d,s,s,1,3,75%,75%
sub15,1,B,77,1,1080,n,r,s,1,4,75%,75%
sub15,1,B,84,1,1967,n,s,s,3,2,75%,75%
sub15,1,B,85,1,1245,d,r,s,3,3,75%,75%
sub15,1,B,86,1,868,n,s,s,3,4,75%,75%
sub15,1,B,94,1,1420,n,r,s,1,2,75%,75%
sub15,1,B,95,1,2070,d,s,s,1,3,75%,75%
sub15,1,B,96,1,1220,n,r,s,1,4,75%,75%
sub15,1,B,104,1,1484,n,r,s,1,2,75%,75%
sub15,1,B,105,1,2216,d,s,s,1,3,75%,75%
sub15,1,B,106,1,1923,n,r,s,1,4,75%,75%
sub15,1,B,113,1,1442,n,s,s,4,2,75%,75%
sub15,1,B,114,1,1307,d,r,s,4,3,75%,75%
sub15,1,B,115,1,2233,d,r,s,4,4,75%,75%
sub15,1,B,123,1,836,n,s,s,3,2,75%,75%
sub15,1,B,124,1,1447,d,r,s,3,3,75%,75%
sub15,1,B,125,1,1185,n,s,s,3,4,75%,75%
sub15,1,B,133,1,1316,n,r,s,2,2,75%,75%
sub15,1,B,134,1,1564,d,s,s,2,3,75%,75%
sub15,1,B,135,1,975,d,s,s,2,4,75%,75%
sub15,1,B,142,1,1396,n,r,s,1,2,75%,75%
sub15,1,B,143,1,1242,d,s,s,1,3,75%,75%
sub15,1,B,144,1,1480,n,r,s,1,4,75%,75%
sub15,1,B,152,1,1122,n,s,s,3,2,75%,75%
sub15,1,B,153,1,2208,d,r,s,3,3,75%,75%
sub15,1,B,154,1,1114,n,s,s,3,4,75%,75%
sub15,2,C,166,1,1950,n,s,s,4,2,25%,25%
sub15,2,C,167,1,2391,d,r,s,4,3,25%,25%
sub15,2,C,168,1,915,d,r,s,4,4,25%,25%
sub15,2,C,175,1,993,n,r,s,2,2,25%,25%
sub15,2,C,176,1,1814,d,s,s,2,3,25%,25%
sub15,2,C,177,1,1265,d,s,s,2,4,25%,25%
sub15,2,C,185,1,938,n,s,s,3,2,25%,25%
sub15,2,C,186,1,1053,d,r,s,3,3,25%,25%
sub15,2,C,187,1,1493,n,s,s,3,4,25%,25%
sub15,2,C,195,1,1158,n,s,s,4,2,25%,25%
sub15,2,C,196,1,1047,d,r,s,4,3,25%,25%
sub15,2,C,197,1,907,d,r,s,4,4,25%,25%
sub15,2,C,205,1,896,n,r,s,2,2,25%,25%
sub15,2,C,206,1,1539,d,s,s,2,3,25%,25%
sub15,2,C,207,1,926,d,s,s,2,4,25%,25%
sub15,2,C,215,1,699,n,r,s,2,2,25%,25%
sub15,2,C,216,1,1135,d,s,s,2,3,25%,25%
sub15,2,C,217,1,1075,d,s,s,2,4,25%,25%
sub15,2,C,224,1,714,n,s,s,4,2,25%,25%
sub15,2,C,225,1,1447,d,r,s,4,3,25%,25%
sub15,2,C,226,1,1269,d,r,s,4,4,25%,25%
sub15,2,C,234,1,1140,n,r,s,1,2,25%,25%
sub15,2,C,235,1,1360,d,s,s,1,3,25%,25%
sub15,2,C,236,1,828,n,r,s,1,4,25%,25%
sub15,2,C,244,1,839,n,s,s,3,2,25%,25%
sub15,2,C,245,1,2001,d,r,s,3,3,25%,25%
sub15,2,C,246,1,1114,n,s,s,3,4,25%,25%
sub15,2,C,253,1,1074,n,r,s,1,2,25%,25%
sub15,2,C,254,1,1606,d,s,s,1,3,25%,25%
sub15,2,C,255,1,1884,n,r,s,1,4,25%,25%
sub15,2,C,263,1,857,n,r,s,1,2,25%,25%
sub15,2,C,264,1,1056,d,s,s,1,3,25%,25%
sub15,2,C,265,1,794,n,r,s,1,4,25%,25%
sub15,2,C,272,1,792,n,s,s,4,2,25%,25%
sub15,2,C,273,1,1621,d,r,s,4,3,25%,25%
sub15,2,C,274,1,952,d,r,s,4,4,25%,25%
sub15,2,C,284,1,1257,n,s,s,3,4,25%,25%
sub15,2,C,292,1,734,n,r,s,2,2,25%,25%
sub15,2,C,294,1,1879,d,s,s,2,4,25%,25%
sub15,2,C,302,1,800,n,r,s,1,2,25%,25%
sub15,2,C,303,1,1269,d,s,s,1,3,25%,25%
sub15,2,C,312,1,1216,n,s,s,3,2,25%,25%
sub15,2,C,313,1,973,d,r,s,3,3,25%,25%
sub15,2,C,314,1,1482,n,s,s,3,4,25%,25%
sub15,3,A,327,1,1124,n,s,s,4,2,25%,75%
sub15,3,A,328,1,704,d,r,s,4,3,25%,75%
sub15,3,A,329,1,1154,d,r,s,4,4,25%,75%
sub15,3,A,336,1,613,n,r,s,2,2,25%,75%
sub15,3,A,337,1,828,d,s,s,2,3,25%,75%
sub15,3,A,338,1,1481,d,s,s,2,4,25%,75%
sub15,3,A,344,1,1108,n,s,s,3,2,25%,75%
sub15,3,A,345,1,835,d,r,s,3,3,25%,75%
sub15,3,A,346,1,1014,n,s,s,3,4,25%,75%
sub15,3,A,354,1,1170,n,s,s,4,2,25%,75%
sub15,3,A,355,1,773,d,r,s,4,3,25%,75%
sub15,3,A,356,1,1091,d,r,s,4,4,25%,75%
sub15,3,A,363,1,636,n,r,s,2,2,25%,75%
sub15,3,A,364,1,1302,d,s,s,2,3,25%,75%
sub15,3,A,365,1,1730,d,s,s,2,4,25%,75%
sub15,3,A,372,1,624,n,r,s,2,2,25%,75%
sub15,3,A,373,1,1835,d,s,s,2,3,25%,75%
sub15,3,A,374,1,812,d,s,s,2,4,25%,75%
sub15,3,A,382,1,894,n,s,s,4,2,25%,75%
sub15,3,A,383,1,786,d,r,s,4,3,25%,75%
sub15,3,A,384,1,620,d,r,s,4,4,25%,75%
sub15,3,A,392,1,960,n,r,s,1,2,25%,75%
sub15,3,A,393,1,1261,d,s,s,1,3,25%,75%
sub15,3,A,394,1,680,n,r,s,1,4,25%,75%
sub15,3,A,402,1,831,n,s,s,3,2,25%,75%
sub15,3,A,403,1,1327,d,r,s,3,3,25%,75%
sub15,3,A,404,1,638,n,s,s,3,4,25%,75%
sub15,3,A,412,1,640,n,r,s,1,2,25%,75%
sub15,3,A,413,1,841,d,s,s,1,3,25%,75%
sub15,3,A,414,1,737,n,r,s,1,4,25%,75%
sub15,3,A,422,1,913,n,r,s,1,2,25%,75%
sub15,3,A,423,1,686,d,s,s,1,3,25%,75%
sub15,3,A,424,1,837,n,r,s,1,4,25%,75%
sub15,3,A,432,1,605,n,s,s,4,2,25%,75%
sub15,3,A,434,1,738,d,r,s,4,4,25%,75%
sub15,3,A,442,1,1158,n,s,s,3,2,25%,75%
sub15,3,A,443,1,905,d,r,s,3,3,25%,75%
sub15,3,A,444,1,768,n,s,s,3,4,25%,75%
sub15,3,A,452,1,817,n,r,s,2,2,25%,75%
sub15,3,A,453,1,1002,d,s,s,2,3,25%,75%
sub15,3,A,454,1,1142,d,s,s,2,4,25%,75%
sub15,3,A,462,1,551,n,r,s,1,2,25%,75%
sub15,3,A,464,1,1526,n,r,s,1,4,25%,75%
sub15,3,A,472,1,728,n,s,s,3,2,25%,75%
sub15,3,A,473,1,1971,d,r,s,3,3,25%,75%
sub15,3,A,474,1,730,n,s,s,3,4,25%,75%
sub15,4,D,486,1,1661,n,s,s,4,2,75%,25%
sub15,4,D,487,1,914,d,r,s,4,3,75%,25%
sub15,4,D,488,1,777,d,r,s,4,4,75%,25%
sub15,4,D,496,1,889,n,r,s,2,2,75%,25%
sub15,4,D,497,1,1487,d,s,s,2,3,75%,25%
sub15,4,D,498,1,969,d,s,s,2,4,75%,25%
sub15,4,D,506,1,1852,n,s,s,3,2,75%,25%
sub15,4,D,507,1,1434,d,r,s,3,3,75%,25%
sub15,4,D,508,1,1314,n,s,s,3,4,75%,25%
sub15,4,D,516,1,838,n,s,s,4,2,75%,25%
sub15,4,D,517,1,1491,d,r,s,4,3,75%,25%
sub15,4,D,518,1,1296,d,r,s,4,4,75%,25%
sub15,4,D,526,1,717,n,r,s,2,2,75%,25%
sub15,4,D,527,1,1081,d,s,s,2,3,75%,25%
sub15,4,D,528,1,1203,d,s,s,2,4,75%,25%
sub15,4,D,536,1,1658,n,r,s,2,2,75%,25%
sub15,4,D,537,1,1115,d,s,s,2,3,75%,25%
sub15,4,D,538,1,1953,d,s,s,2,4,75%,25%
sub15,4,D,546,1,888,n,s,s,4,2,75%,25%
sub15,4,D,547,1,2102,d,r,s,4,3,75%,25%
sub15,4,D,548,1,1738,d,r,s,4,4,75%,25%
sub15,4,D,556,1,1255,n,r,s,1,2,75%,25%
sub15,4,D,557,1,1209,d,s,s,1,3,75%,25%
sub15,4,D,558,1,953,n,r,s,1,4,75%,25%
sub15,4,D,567,1,2445,d,r,s,3,3,75%,25%
sub15,4,D,568,1,786,n,s,s,3,4,75%,25%
sub15,4,D,576,1,768,n,r,s,1,2,75%,25%
sub15,4,D,577,1,1470,d,s,s,1,3,75%,25%
sub15,4,D,578,1,1227,n,r,s,1,4,75%,25%
sub15,4,D,586,1,1186,n,r,s,1,2,75%,25%
sub15,4,D,587,1,1740,d,s,s,1,3,75%,25%
sub15,4,D,588,1,870,n,r,s,1,4,75%,25%
sub15,4,D,595,1,1356,n,s,s,4,2,75%,25%
sub15,4,D,596,1,1187,d,r,s,4,3,75%,25%
sub15,4,D,597,1,1199,d,r,s,4,4,75%,25%
sub15,4,D,603,1,1530,n,s,s,3,2,75%,25%
sub15,4,D,604,1,1556,d,r,s,3,3,75%,25%
sub15,4,D,605,1,955,n,s,s,3,4,75%,25%
sub15,4,D,613,1,781,n,r,s,2,2,75%,25%
sub15,4,D,614,1,1314,d,s,s,2,3,75%,25%
sub15,4,D,615,1,1602,d,s,s,2,4,75%,25%
sub15,4,D,622,1,1718,n,r,s,1,2,75%,25%
sub15,4,D,623,1,1163,d,s,s,1,3,75%,25%
sub15,4,D,624,1,1746,n,r,s,1,4,75%,25%
sub15,4,D,632,1,906,n,s,s,3,2,75%,25%
sub15,4,D,633,1,1683,d,r,s,3,3,75%,25%
