subject,block,blockType,trialCount,acc,RT,congruency,cuedTask,taskSequence,sequenceType,sequenceKind,sequencePosition,switchProp,incongruentProp
sub1,1,A,2,1,868,i,m,r,f,NA,NA,25%,75%
sub1,1,A,3,1,1001,i,m,r,f,NA,NA,25%,75%
sub1,1,A,4,1,896,i,m,r,f,NA,NA,25%,75%
sub1,1,A,5,1,980,i,m,r,f,NA,NA,25%,75%
sub1,1,A,6,1,1062,c,p,s,s,4,1,25%,75%
sub1,1,A,7,1,823,c,m,s,s,4,2,25%,75%
sub1,1,A,8,1,834,i,m,r,s,4,3,25%,75%
sub1,1,A,9,1,1059,i,m,r,s,4,4,25%,75%
sub1,1,A,10,1,1148,c,p,s,f,NA,NA,25%,75%
sub1,1,A,11,1,1158,i,p,r,f,NA,NA,25%,75%
sub1,1,A,12,1,1237,i,p,r,f,NA,NA,25%,75%
sub1,1,A,13,0,851,i,p,r,f,NA,NA,25%,75%
sub1,1,A,14,1,1094,i,p,r,f,NA,NA,25%,75%
sub1,1,A,15,0,1427,i,p,r,s,3,1,25%,75%
sub1,1,A,16,1,1223,c,m,s,s,3,2,25%,75%
sub1,1,A,17,1,1062,i,m,r,s,3,3,25%,75%
sub1,1,A,18,0,1046,c,p,s,s,3,4,25%,75%
sub1,1,A,19,1,982,c,m,s,f,NA,NA,25%,75%
sub1,1,A,20,1,1375,i,m,r,f,NA,NA,25%,75%
sub1,1,A,21,1,940,i,m,r,f,NA,NA,25%,75%
sub1,1,A,22,1,1160,i,m,r,f,NA,NA,25%,75%
sub1,1,A,23,0,1171,i,p,s,s,1,1,25%,75%
sub1,1,A,24,1,1106,c,p,r,s,1,2,25%,75%
sub1,1,A,25,1,1058,i,m,s,s,1,3,25%,75%
sub1,1,A,26,1,1193,c,m,r,s,1,4,25%,75%
sub1,1,A,27,1,1019,i,m,r,f,NA,NA,25%,75%
sub1,1,A,28,1,1146,i,m,r,f,NA,NA,25%,75%
sub1,1,A,29,1,902,i,m,r,f,NA,NA,25%,75%
sub1,1,A,30,1,1033,i,m,r,f,NA,NA,25%,75%
sub1,1,A,31,1,869,i,m,r,f,NA,NA,25%,75%
sub1,1,A,32,1,902,i,m,r,f,NA,NA,25%,75%
sub1,1,A,33,1,1051,c,m,r,s,2,1,25%,75%
sub1,1,A,34,1,1030,c,m,r,s,2,2,25%,75%
sub1,1,A,35,1,1204,i,p,s,s,2,3,25%,75%
sub1,1,A,36,1,1106,i,m,s,s,2,4,25%,75%
sub1,1,A,37,1,948,c,p,s,f,NA,NA,25%,75%
sub1,1,A,38,1,1055,i,p,r,f,NA,NA,25%,75%
sub1,1,A,39,1,969,i,p,r,f,NA,NA,25%,75%
sub1,1,A,40,1,988,i,p,r,f,NA,NA,25%,75%
sub1,1,A,41,1,958,i,p,r,f,NA,NA,25%,75%
sub1,1,A,42,1,981,i,p,r,f,NA,NA,25%,75%
sub1,1,A,43,1,941,i,m,s,s,1,1,25%,75%
sub1,1,A,44,1,892,c,m,r,s,1,2,25%,75%
sub1,1,A,45,1,1220,i,p,s,s,1,3,25%,75%
sub1,1,A,46,1,1472,c,p,r,s,1,4,25%,75%
sub1,1,A,47,1,1172,i,p,r,f,NA,NA,25%,75%
sub1,1,A,48,1,862,i,p,r,f,NA,NA,25%,75%
sub1,1,A,49,1,1028,i,p,r,f,NA,NA,25%,75%
sub1,1,A,50,1,1038,i,p,r,f,NA,NA,25%,75%
sub1,1,A,51,1,1087,i,p,r,f,NA,NA,25%,75%
sub1,1,A,52,1,985,i,p,r,f,NA,NA,25%,75%
sub1,1,A,53,1,1101,c,m,s,s,4,1,25%,75%
sub1,1,A,54,1,1124,c,p,s,s,4,2,25%,75%
sub1,1,A,55,1,998,i,p,r,s,4,3,25%,75%
sub1,1,A,56,1,1013,i,p,r,s,4,4,25%,75%
sub1,1,A,57,1,1122,c,m,s,f,NA,NA,25%,75%
sub1,1,A,58,1,1142,i,m,r,f,NA,NA,25%,75%
sub1,1,A,59,0,1081,i,m,r,f,NA,NA,25%,75%
sub1,1,A,60,1,892,i,m,r,f,NA,NA,25%,75%
sub1,1,A,61,1,1080,i,m,r,f,NA,NA,25%,75%
sub1,1,A,62,1,1071,i,m,r,f,NA,NA,25%,75%
sub1,1,A,63,1,1114,i,p,s,s,1,1,25%,75%
sub1,1,A,64,1,1102,c,p,r,s,1,2,25%,75%
sub1,1,A,65,1,990,i,m,s,s,1,3,25%,75%
sub1,1,A,66,1,1077,c,m,r,s,1,4,25%,75%
sub1,1,A,67,1,1251,c,p,s,f,NA,NA,25%,75%
sub1,1,A,68,1,1163,i,p,r,f,NA,NA,25%,75%
sub1,1,A,69,1,1247,i,p,r,f,NA,NA,25%,75%
sub1,1,A,70,0,1136,i,p,r,f,NA,NA,25%,75%
sub1,1,A,71,1,1060,i,p,r,f,NA,NA,25%,75%
sub1,1,A,72,0,1270,i,p,r,f,NA,NA,25%,75%
sub1,1,A,73,1,878,c,p,r,s,2,1,25%,75%
sub1,1,A,74,1,1094,c,p,r,s,2,2,25%,75%
sub1,1,A,75,1,1052,i,m,s,s,2,3,25%,75%
sub1,1,A,76,1,1256,i,p,s,s,2,4,25%,75%
sub1,1,A,77,1,1331,i,p,r,f,NA,NA,25%,75%
sub1,1,A,78,1,1268,i,p,r,f,NA,NA,25%,75%
sub1,1,A,79,1,1081,i,p,r,f,NA,NA,25%,75%
sub1,1,A,80,1,929,i,p,r,f,NA,NA,25%,75%
sub1,1,A,81,1,934,i,p,r,f,NA,NA,25%,75%
sub1,1,A,82,1,977,i,p,r,f,NA,NA,25%,75%
sub1,1,A,83,1,1158,c,p,r,s,2,1,25%,75%
sub1,1,A,84,1,1037,c,p,r,s,2,2,25%,75%
sub1,1,A,85,1,980,i,m,s,s,2,3,25%,75%
sub1,1,A,86,0,1121,i,p,s,s,2,4,25%,75%
sub1,1,A,87,1,1024,c,m,s,f,NA,NA,25%,75%
sub1,1,A,88,1,1365,i,m,r,f,NA,NA,25%,75%
sub1,1,A,89,1,1098,i,m,r,f,NA,NA,25%,75%
sub1,1,A,90,1,1391,i,m,r,f,NA,NA,25%,75%
sub1,1,A,91,1,1003,i,m,r,f,NA,NA,25%,75%
sub1,1,A,92,1,1111,i,m,r,f,NA,NA,25%,75%
sub1,1,A,93,1,1399,c,p,s,s,4,1,25%,75%
sub1,1,A,94,1,940,c,m,s,s,4,2,25%,75%
sub1,1,A,95,1,1262,i,m,r,s,4,3,25%,75%
sub1,1,A,96,1,1109,i,m,r,s,4,4,25%,75%
sub1,1,A,97,0,1210,c,p,s,f,NA,NA,25%,75%
sub1,1,A,98,1,1052,i,p,r,f,NA,NA,25%,75%
sub1,1,A,99,1,1067,i,p,r,f,NA,NA,25%,75%
sub1,1,A,100,1,1192,i,p,r,f,NA,NA,25%,75%
sub1,1,A,101,1,1047,i,p,r,f,NA,NA,25%,75%
sub1,1,A,102,1,1043,i,p,r,f,NA,NA,25%,75%
sub1,1,A,103,1,1140,i,m,s,s,1,1,25%,75%
sub1,1,A,104,1,1378,c,m,r,s,1,2,25%,75%
sub1,1,A,105,0,908,i,p,s,s,1,3,25%,75%
sub1,1,A,106,1,910,c,p,r,s,1,4,25%,75%
sub1,1,A,107,1,985,i,p,r,f,NA,NA,25%,75%
sub1,1,A,108,1,1120,i,p,r,f,NA,NA,25%,75%
sub1,1,A,109,1,1042,i,p,r,f,NA,NA,25%,75%
sub1,1,A,110,1,1201,i,p,r,f,NA,NA,25%,75%
sub1,1,A,111,1,1183,i,p,r,f,NA,NA,25%,75%
sub1,1,A,112,1,1156,i,p,r,f,NA,NA,25%,75%
sub1,1,A,113,1,1006,c,m,s,s,4,1,25%,75%
sub1,1,A,114,1,1067,c,p,s,s,4,2,25%,75%
sub1,1,A,115,1,1032,i,p,r,s,4,3,25%,75%
sub1,1,A,116,1,913,i,p,r,s,4,4,25%,75%
sub1,1,A,117,1,1054,i,p,r,f,NA,NA,25%,75%
sub1,1,A,118,1,891,i,p,r,f,NA,NA,25%,75%
sub1,1,A,119,1,1112,i,p,r,f,NA,NA,25%,75%
sub1,1,A,120,1,1074,i,p,r,f,NA,NA,25%,75%
sub1,1,A,121,1,971,i,p,r,f,NA,NA,25%,75%
sub1,1,A,122,1,1113,i,p,r,f,NA,NA,25%,75%
sub1,1,A,123,1,1168,i,p,r,s,3,1,25%,75%
sub1,1,A,124,0,1132,c,m,s,s,3,2,25%,75%
sub1,1,A,125,1,1450,i,m,r,s,3,3,25%,75%
sub1,1,A,126,0,NA,c,p,s,s,3,4,25%,75%
sub1,1,A,127,1,928,c,m,s,f,NA,NA,25%,75%
sub1,1,A,128,1,995,i,m,r,f,NA,NA,25%,75%
sub1,1,A,129,1,956,i,m,r,f,NA,NA,25%,75%
sub1,1,A,130,1,1204,i,m,r,f,NA,NA,25%,75%
sub1,1,A,131,1,929,i,m,r,f,NA,NA,25%,75%
sub1,1,A,132,1,1102,i,m,r,f,NA,NA,25%,75%
sub1,1,A,133,1,941,c,m,r,s,2,1,25%,75%
sub1,1,A,134,1,990,c,m,r,s,2,2,25%,75%
sub1,1,A,135,1,1292,i,p,s,s,2,3,25%,75%
sub1,1,A,136,1,887,i,m,s,s,2,4,25%,75%
sub1,1,A,137,1,889,i,m,r,f,NA,NA,25%,75%
sub1,1,A,138,1,987,i,m,r,f,NA,NA,25%,75%
sub1,1,A,139,1,1015,i,m,r,f,NA,NA,25%,75%
sub1,1,A,140,1,1056,i,m,r,f,NA,NA,25%,75%
sub1,1,A,141,1,837,i,m,r,f,NA,NA,25%,75%
sub1,1,A,142,1,1010,i,m,r,f,NA,NA,25%,75%
sub1,1,A,143,1,853,i,m,r,s,3,1,25%,75%
sub1,1,A,144,1,1047,c,p,s,s,3,2,25%,75%
sub1,1,A,145,1,1160,i,p,r,s,3,3,25%,75%
sub1,1,A,146,1,914,c,m,s,s,3,4,25%,75%
sub1,1,A,147,1,814,i,m,r,f,NA,NA,25%,75%
sub1,1,A,148,1,1076,i,m,r,f,NA,NA,25%,75%
sub1,1,A,149,1,798,i,m,r,f,NA,NA,25%,75%
sub1,1,A,150,1,1097,i,m,r,f,NA,NA,25%,75%
sub1,1,A,151,1,1002,i,m,r,f,NA,NA,25%,75%
sub1,1,A,152,1,941,i,m,r,s,3,1,25%,75%
sub1,1,A,153,1,1201,c,p,s,s,3,2,25%,75%
sub1,1,A,154,1,1192,i,p,r,s,3,3,25%,75%
sub1,1,A,155,1,852,c,m,s,s,3,4,25%,75%
sub1,1,A,156,1,815,i,m,r,f,NA,NA,25%,75%
sub1,1,A,157,1,816,i,m,r,f,NA,NA,25%,75%
sub1,1,A,158,1,976,i,m,r,f,NA,NA,25%,75%
sub1,1,A,159,1,1073,i,m,r,f,NA,NA,25%,75%
sub1,1,A,160,1,977,i,m,r,f,NA,NA,25%,75%
sub1,2,B,162,1,976,i,m,s,f,NA,NA,75%,75%
sub1,2,B,163,1,803,i,p,s,f,NA,NA,75%,75%
sub1,2,B,164,1,1020,i,m,s,f,NA,NA,75%,75%
sub1,2,B,165,1,844,i,p,s,f,NA,NA,75%,75%
sub1,2,B,166,1,887,c,m,s,s,4,1,75%,75%
sub1,2,B,167,1,963,c,p,s,s,4,2,75%,75%
sub1,2,B,168,1,921,i,p,r,s,4,3,75%,75%
sub1,2,B,169,1,760,i,p,r,s,4,4,75%,75%
sub1,2,B,170,1,861,c,p,r,f,NA,NA,75%,75%
sub1,2,B,171,1,954,i,m,s,f,NA,NA,75%,75%
sub1,2,B,172,1,999,i,p,s,f,NA,NA,75%,75%
sub1,2,B,173,1,979,i,m,s,f,NA,NA,75%,75%
sub1,2,B,174,1,1098,i,p,s,f,NA,NA,75%,75%
sub1,2,B,175,1,806,i,m,s,f,NA,NA,75%,75%
sub1,2,B,176,1,846,i,m,r,s,3,1,75%,75%
sub1,2,B,177,1,824,c,p,s,s,3,2,75%,75%
sub1,2,B,178,0,809,i,p,r,s,3,3,75%,75%
sub1,2,B,179,1,1121,c,m,s,s,3,4,75%,75%
sub1,2,B,180,0,882,i,p,s,f,NA,NA,75%,75%
sub1,2,B,181,1,936,i,m,s,f,NA,NA,75%,75%
sub1,2,B,182,1,1194,i,p,s,f,NA,NA,75%,75%
sub1,2,B,183,1,1118,i,m,s,f,NA,NA,75%,75%
sub1,2,B,184,1,943,i,p,s,f,NA,NA,75%,75%
sub1,2,B,185,0,1074,i,m,s,s,1,1,75%,75%
sub1,2,B,186,0,1248,c,m,r,s,1,2,75%,75%
sub1,2,B,187,1,859,i,p,s,s,1,3,75%,75%
sub1,2,B,188,1,940,c,p,r,s,1,4,75%,75%
sub1,2,B,189,1,1076,i,m,s,f,NA,NA,75%,75%
sub1,2,B,190,1,1141,i,p,s,f,NA,NA,75%,75%
sub1,2,B,191,1,874,i,m,s,f,NA,NA,75%,75%
sub1,2,B,192,0,955,i,p,s,f,NA,NA,75%,75%
sub1,2,B,193,1,1201,i,m,s,f,NA,NA,75%,75%
sub1,2,B,194,0,837,i,p,s,f,NA,NA,75%,75%
sub1,2,B,195,1,1439,c,p,r,s,2,1,75%,75%
sub1,2,B,196,1,889,c,p,r,s,2,2,75%,75%
sub1,2,B,197,1,1159,i,m,s,s,2,3,75%,75%
sub1,2,B,198,0,905,i,p,s,s,2,4,75%,75%
sub1,2,B,199,1,1017,i,m,s,f,NA,NA,75%,75%
sub1,2,B,200,1,997,i,p,s,f,NA,NA,75%,75%
sub1,2,B,201,1,1259,i,m,s,f,NA,NA,75%,75%
sub1,2,B,202,0,958,i,p,s,f,NA,NA,75%,75%
sub1,2,B,203,1,1269,i,m,s,f,NA,NA,75%,75%
sub1,2,B,204,0,970,i,p,s,f,NA,NA,75%,75%
sub1,2,B,205,1,843,i,m,s,s,1,1,75%,75%
sub1,2,B,206,1,1010,c,m,r,s,1,2,75%,75%
sub1,2,B,207,0,961,i,p,s,s,1,3,75%,75%
sub1,2,B,208,1,973,c,p,r,s,1,4,75%,75%
sub1,2,B,209,1,1082,i,m,s,f,NA,NA,75%,75%
sub1,2,B,210,0,1010,i,p,s,f,NA,NA,75%,75%
sub1,2,B,211,1,1037,i,m,s,f,NA,NA,75%,75%
sub1,2,B,212,1,1117,i,p,s,f,NA,NA,75%,75%
sub1,2,B,213,1,999,i,m,s,f,NA,NA,75%,75%
sub1,2,B,214,1,971,i,p,s,f,NA,NA,75%,75%
sub1,2,B,215,1,1004,c,m,s,s,4,1,75%,75%
sub1,2,B,216,1,1014,c,p,s,s,4,2,75%,75%
sub1,2,B,217,1,835,i,p,r,s,4,3,75%,75%
sub1,2,B,218,1,1004,i,p,r,s,4,4,75%,75%
sub1,2,B,219,1,1020,i,m,s,f,NA,NA,75%,75%
sub1,2,B,220,1,946,i,p,s,f,NA,NA,75%,75%
sub1,2,B,221,1,968,i,m,s,f,NA,NA,75%,75%
sub1,2,B,222,1,1021,i,p,s,f,NA,NA,75%,75%
sub1,2,B,223,0,NA,i,m,s,f,NA,NA,75%,75%
sub1,2,B,224,1,1043,i,p,s,f,NA,NA,75%,75%
sub1,2,B,225,1,857,i,m,s,s,1,1,75%,75%
sub1,2,B,226,1,1011,c,m,r,s,1,2,75%,75%
sub1,2,B,227,1,964,i,p,s,s,1,3,75%,75%
sub1,2,B,228,1,1277,c,p,r,s,1,4,75%,75%
sub1,2,B,229,1,855,c,p,r,f,NA,NA,75%,75%
sub1,2,B,230,1,905,i,m,s,f,NA,NA,75%,75%
sub1,2,B,231,0,940,i,p,s,f,NA,NA,75%,75%
sub1,2,B,232,1,1104,i,m,s,f,NA,NA,75%,75%
sub1,2,B,233,1,1053,i,p,s,f,NA,NA,75%,75%
sub1,2,B,234,1,1100,i,m,s,f,NA,NA,75%,75%
sub1,2,B,235,1,954,c,m,r,s,2,1,75%,75%
sub1,2,B,236,1,877,c,m,r,s,2,2,75%,75%
sub1,2,B,237,1,1042,i,p,s,s,2,3,75%,75%
sub1,2,B,238,1,1092,i,m,s,s,2,4,75%,75%
sub1,2,B,239,1,988,c,m,r,f,NA,NA,75%,75%
sub1,2,B,240,1,1013,i,p,s,f,NA,NA,75%,75%
sub1,2,B,241,1,925,i,m,s,f,NA,NA,75%,75%
sub1,2,B,242,1,1009,i,p,s,f,NA,NA,75%,75%
sub1,2,B,243,1,991,i,m,s,f,NA,NA,75%,75%
sub1,2,B,244,1,934,c,m,r,s,2,1,75%,75%
sub1,2,B,245,1,1050,c,m,r,s,2,2,75%,75%
sub1,2,B,246,1,1187,i,p,s,s,2,3,75%,75%
sub1,2,B,247,1,990,i,m,s,s,2,4,75%,75%
sub1,2,B,248,1,813,c,m,r,f,NA,NA,75%,75%
sub1,2,B,249,1,1050,i,p,s,f,NA,NA,75%,75%
sub1,2,B,250,1,991,i,m,s,f,NA,NA,75%,75%
sub1,2,B,251,1,1067,i,p,s,f,NA,NA,75%,75%
sub1,2,B,252,1,982,i,m,s,f,NA,NA,75%,75%
sub1,2,B,253,1,1084,i,p,s,f,NA,NA,75%,75%
sub1,2,B,254,1,1024,c,m,s,s,4,1,75%,75%
sub1,2,B,255,1,914,c,p,s,s,4,2,75%,75%
sub1,2,B,256,1,1097,i,p,r,s,4,3,75%,75%
sub1,2,B,257,1,1045,i,p,r,s,4,4,75%,75%
sub1,2,B,258,1,966,i,m,s,f,NA,NA,75%,75%
sub1,2,B,259,1,1169,i,p,s,f,NA,NA,75%,75%
sub1,2,B,260,1,1231,i,m,s,f,NA,NA,75%,75%
sub1,2,B,261,1,995,i,p,s,f,NA,NA,75%,75%
sub1,2,B,262,1,969,i,m,s,f,NA,NA,75%,75%
sub1,2,B,263,1,940,i,p,s,s,1,1,75%,75%
sub1,2,B,264,1,882,c,p,r,s,1,2,75%,75%
sub1,2,B,265,1,937,i,m,s,s,1,3,75%,75%
sub1,2,B,266,1,940,c,m,r,s,1,4,75%,75%
sub1,2,B,267,1,945,c,m,r,f,NA,NA,75%,75%
sub1,2,B,268,1,1038,i,p,s,f,NA,NA,75%,75%
sub1,2,B,269,1,901,i,m,s,f,NA,NA,75%,75%
sub1,2,B,270,1,992,i,p,s,f,NA,NA,75%,75%
sub1,2,B,271,1,1045,i,m,s,f,NA,NA,75%,75%
sub1,2,B,272,1,1082,c,p,s,s,4,1,75%,75%
sub1,2,B,273,1,1219,c,m,s,s,4,2,75%,75%
sub1,2,B,274,1,967,i,m,r,s,4,3,75%,75%
sub1,2,B,275,1,874,i,m,r,s,4,4,75%,75%
sub1,2,B,276,1,992,c,m,r,f,NA,NA,75%,75%
sub1,2,B,277,1,972,i,p,s,f,NA,NA,75%,75%
sub1,2,B,278,1,1173,i,m,s,f,NA,NA,75%,75%
sub1,2,B,279,0,952,i,p,s,f,NA,NA,75%,75%
sub1,2,B,280,1,979,i,m,s,f,NA,NA,75%,75%
sub1,2,B,281,1,1076,i,p,s,f,NA,NA,75%,75%
sub1,2,B,282,1,1072,i,p,r,s,3,1,75%,75%
sub1,2,B,283,1,1008,c,m,s,s,3,2,75%,75%
sub1,2,B,284,1,1062,i,m,r,s,3,3,75%,75%
sub1,2,B,285,1,1108,c,p,s,s,3,4,75%,75%
sub1,2,B,286,1,881,i,m,s,f,NA,NA,75%,75%
sub1,2,B,287,0,893,i,p,s,f,NA,NA,75%,75%
sub1,2,B,288,1,937,i,m,s,f,NA,NA,75%,75%
sub1,2,B,289,1,983,i,p,s,f,NA,NA,75%,75%
sub1,2,B,290,1,1305,i,m,s,f,NA,NA,75%,75%
sub1,2,B,291,1,938,i,p,s,f,NA,NA,75%,75%
sub1,2,B,292,1,1052,c,p,r,s,2,1,75%,75%
sub1,2,B,293,1,856,c,p,r,s,2,2,75%,75%
sub1,2,B,294,1,986,i,m,s,s,2,3,75%,75%
sub1,2,B,295,0,877,i,p,s,s,2,4,75%,75%
sub1,2,B,296,1,1067,c,p,r,f,NA,NA,75%,75%
sub1,2,B,297,1,1004,i,m,s,f,NA,NA,75%,75%
sub1,2,B,298,1,1125,i,p,s,f,NA,NA,75%,75%
sub1,2,B,299,1,1205,i,m,s,f,NA,NA,75%,75%
sub1,2,B,300,1,1195,i,p,s,f,NA,NA,75%,75%
sub1,2,B,301,1,952,i,m,s,f,NA,NA,75%,75%
sub1,2,B,302,1,939,i,m,r,s,3,1,75%,75%
sub1,2,B,303,1,906,c,p,s,s,3,2,75%,75%
sub1,2,B,304,1,1214,i,p,r,s,3,3,75%,75%
sub1,2,B,305,1,1073,c,m,s,s,3,4,75%,75%
sub1,2,B,306,1,893,c,m,r,f,NA,NA,75%,75%
sub1,2,B,307,1,1332,i,p,s,f,NA,NA,75%,75%
sub1,2,B,308,1,1014,i,m,s,f,NA,NA,75%,75%
sub1,2,B,309,1,1182,i,p,s,f,NA,NA,75%,75%
sub1,2,B,310,1,1032,i,m,s,f,NA,NA,75%,75%
sub1,2,B,311,1,1239,i,m,r,s,3,1,75%,75%
sub1,2,B,312,1,1001,c,p,s,s,3,2,75%,75%
sub1,2,B,313,1,1024,i,p,r,s,3,3,75%,75%
sub1,2,B,314,1,951,c,m,s,s,3,4,75%,75%
sub1,2,B,315,0,855,i,p,s,f,NA,NA,75%,75%
sub1,2,B,316,1,929,i,m,s,f,NA,NA,75%,75%
sub1,2,B,317,0,950,i,p,s,f,NA,NA,75%,75%
sub1,2,B,318,1,1166,i,m,s,f,NA,NA,75%,75%
sub1,2,B,319,1,1215,i,p,s,f,NA,NA,75%,75%
sub1,2,B,320,1,1238,i,m,s,f,NA,NA,75%,75%
sub1,3,D,322,1,1044,c,m,s,f,NA,NA,75%,25%
sub1,3,D,323,1,1118,c,p,s,f,NA,NA,75%,25%
sub1,3,D,324,1,1040,c,m,s,f,NA,NA,75%,25%
sub1,3,D,325,1,929,c,p,s,f,NA,NA,75%,25%
sub1,3,D,326,1,901,c,m,s,s,4,1,75%,25%
sub1,3,D,327,1,1039,c,p,s,s,4,2,75%,25%
sub1,3,D,328,1,1111,i,p,r,s,4,3,75%,25%
sub1,3,D,329,1,822,i,p,r,s,4,4,75%,25%
sub1,3,D,330,1,1012,i,p,r,f,NA,NA,75%,25%
sub1,3,D,331,1,1031,c,m,s,f,NA,NA,75%,25%
sub1,3,D,332,1,1099,c,p,s,f,NA,NA,75%,25%
sub1,3,D,333,1,1115,c,m,s,f,NA,NA,75%,25%
sub1,3,D,334,1,1479,c,p,s,f,NA,NA,75%,25%
sub1,3,D,335,1,868,i,p,r,s,3,1,75%,25%
sub1,3,D,336,1,999,c,m,s,s,3,2,75%,25%
sub1,3,D,337,1,973,i,m,r,s,3,3,75%,25%
sub1,3,D,338,1,1142,c,p,s,s,3,4,75%,25%
sub1,3,D,339,1,842,c,m,s,f,NA,NA,75%,25%
sub1,3,D,340,1,987,c,p,s,f,NA,NA,75%,25%
sub1,3,D,341,1,1018,c,m,s,f,NA,NA,75%,25%
sub1,3,D,342,1,831,c,p,s,f,NA,NA,75%,25%
sub1,3,D,343,1,831,c,m,s,f,NA,NA,75%,25%
sub1,3,D,344,0,801,i,p,s,s,1,1,75%,25%
sub1,3,D,345,1,936,c,p,r,s,1,2,75%,25%
sub1,3,D,346,1,1186,i,m,s,s,1,3,75%,25%
sub1,3,D,347,1,896,c,m,r,s,1,4,75%,25%
sub1,3,D,348,1,946,i,m,r,f,NA,NA,75%,25%
sub1,3,D,349,1,904,c,p,s,f,NA,NA,75%,25%
sub1,3,D,350,1,855,c,m,s,f,NA,NA,75%,25%
sub1,3,D,351,1,1222,c,p,s,f,NA,NA,75%,25%
sub1,3,D,352,1,975,c,m,s,f,NA,NA,75%,25%
sub1,3,D,353,1,1259,c,p,s,f,NA,NA,75%,25%
sub1,3,D,354,1,1053,c,p,r,s,2,1,75%,25%
sub1,3,D,355,1,985,c,p,r,s,2,2,75%,25%
sub1,3,D,356,1,1350,i,m,s,s,2,3,75%,25%
sub1,3,D,357,1,1016,i,p,s,s,2,4,75%,25%
sub1,3,D,358,1,1024,c,m,s,f,NA,NA,75%,25%
sub1,3,D,359,1,996,c,p,s,f,NA,NA,75%,25%
sub1,3,D,360,1,1110,c,m,s,f,NA,NA,75%,25%
sub1,3,D,361,1,946,c,p,s,f,NA,NA,75%,25%
sub1,3,D,362,1,858,c,m,s,f,NA,NA,75%,25%
sub1,3,D,363,1,1425,c,p,s,f,NA,NA,75%,25%
sub1,3,D,364,1,929,i,m,s,s,1,1,75%,25%
sub1,3,D,365,1,1035,c,m,r,s,1,2,75%,25%
sub1,3,D,366,1,1172,i,p,s,s,1,3,75%,25%
sub1,3,D,367,1,1025,c,p,r,s,1,4,75%,25%
sub1,3,D,368,1,973,c,m,s,f,NA,NA,75%,25%
sub1,3,D,369,1,983,c,p,s,f,NA,NA,75%,25%
sub1,3,D,370,1,945,c,m,s,f,NA,NA,75%,25%
sub1,3,D,371,1,1112,c,p,s,f,NA,NA,75%,25%
sub1,3,D,372,1,954,c,m,s,f,NA,NA,75%,25%
sub1,3,D,373,1,832,c,p,s,f,NA,NA,75%,25%
sub1,3,D,374,1,971,c,m,s,s,4,1,75%,25%
sub1,3,D,375,1,1053,c,p,s,s,4,2,75%,25%
sub1,3,D,376,1,1035,i,p,r,s,4,3,75%,25%
sub1,3,D,377,1,1092,i,p,r,s,4,4,75%,25%
sub1,3,D,378,0,891,i,p,r,f,NA,NA,75%,25%
sub1,3,D,379,1,1050,c,m,s,f,NA,NA,75%,25%
sub1,3,D,380,1,1110,c,p,s,f,NA,NA,75%,25%
sub1,3,D,381,1,1023,c,m,s,f,NA,NA,75%,25%
sub1,3,D,382,1,984,c,p,s,f,NA,NA,75%,25%
sub1,3,D,383,1,1079,c,m,s,f,NA,NA,75%,25%
sub1,3,D,384,1,1472,i,p,s,s,1,1,75%,25%
sub1,3,D,385,1,1125,c,p,r,s,1,2,75%,25%
sub1,3,D,386,1,1261,i,m,s,s,1,3,75%,25%
sub1,3,D,387,1,1362,c,m,r,s,1,4,75%,25%
sub1,3,D,388,1,1128,c,p,s,f,NA,NA,75%,25%
sub1,3,D,389,1,912,c,m,s,f,NA,NA,75%,25%
sub1,3,D,390,1,959,c,p,s,f,NA,NA,75%,25%
sub1,3,D,391,1,1089,c,m,s,f,NA,NA,75%,25%
sub1,3,D,392,1,1211,c,p,s,f,NA,NA,75%,25%
sub1,3,D,393,1,1076,c,m,s,f,NA,NA,75%,25%
sub1,3,D,394,1,921,c,m,r,s,2,1,75%,25%
sub1,3,D,395,1,970,c,m,r,s,2,2,75%,25%
sub1,3,D,396,1,1186,i,p,s,s,2,3,75%,25%
sub1,3,D,397,1,1012,i,m,s,s,2,4,75%,25%
sub1,3,D,398,1,1046,c,p,s,f,NA,NA,75%,25%
sub1,3,D,399,1,1043,c,m,s,f,NA,NA,75%,25%
sub1,3,D,400,1,985,c,p,s,f,NA,NA,75%,25%
sub1,3,D,401,1,921,c,m,s,f,NA,NA,75%,25%
sub1,3,D,402,1,892,c,p,s,f,NA,NA,75%,25%
sub1,3,D,403,1,1054,c,m,s,f,NA,NA,75%,25%
sub1,3,D,404,1,950,c,m,r,s,2,1,75%,25%
sub1,3,D,405,1,1218,c,m,r,s,2,2,75%,25%
sub1,3,D,406,1,1071,i,p,s,s,2,3,75%,25%
sub1,3,D,407,1,974,i,m,s,s,2,4,75%,25%
sub1,3,D,408,1,968,i,m,r,f,NA,NA,75%,25%
sub1,3,D,409,1,1318,c,p,s,f,NA,NA,75%,25%
sub1,3,D,410,1,934,c,m,s,f,NA,NA,75%,25%
sub1,3,D,411,1,956,c,p,s,f,NA,NA,75%,25%
sub1,3,D,412,0,NA,c,m,s,f,NA,NA,75%,25%
sub1,3,D,413,1,1272,c,p,s,f,NA,NA,75%,25%
sub1,3,D,414,1,884,c,m,s,s,4,1,75%,25%
sub1,3,D,415,1,1142,c,p,s,s,4,2,75%,25%
sub1,3,D,416,1,1008,i,p,r,s,4,3,75%,25%
sub1,3,D,417,1,1057,i,p,r,s,4,4,75%,25%
sub1,3,D,418,1,865,c,m,s,f,NA,NA,75%,25%
sub1,3,D,419,1,860,c,p,s,f,NA,NA,75%,25%
sub1,3,D,420,1,938,c,m,s,f,NA,NA,75%,25%
sub1,3,D,421,1,1144,c,p,s,f,NA,NA,75%,25%
sub1,3,D,422,1,930,c,m,s,f,NA,NA,75%,25%
sub1,3,D,423,1,1024,i,p,s,s,1,1,75%,25%
sub1,3,D,424,1,898,c,p,r,s,1,2,75%,25%
sub1,3,D,425,0,NA,i,m,s,s,1,3,75%,25%
sub1,3,D,426,1,943,c,m,r,s,1,4,75%,25%
sub1,3,D,427,0,971,c,p,s,f,NA,NA,75%,25%
sub1,3,D,428,1,863,c,m,s,f,NA,NA,75%,25%
sub1,3,D,429,1,752,c,p,s,f,NA,NA,75%,25%
sub1,3,D,430,1,909,c,m,s,f,NA,NA,75%,25%
sub1,3,D,431,1,979,c,p,s,f,NA,NA,75%,25%
sub1,3,D,432,1,953,c,m,s,f,NA,NA,75%,25%
sub1,3,D,433,1,944,c,p,s,s,4,1,75%,25%
sub1,3,D,434,1,852,c,m,s,s,4,2,75%,25%
sub1,3,D,435,1,1004,i,m,r,s,4,3,75%,25%
sub1,3,D,436,1,1058,i,m,r,s,4,4,75%,25%
sub1,3,D,437,1,893,i,m,r,f,NA,NA,75%,25%
sub1,3,D,438,1,1177,c,p,s,f,NA,NA,75%,25%
sub1,3,D,439,1,1326,c,m,s,f,NA,NA,75%,25%
sub1,3,D,440,1,917,c,p,s,f,NA,NA,75%,25%
sub1,3,D,441,1,945,c,m,s,f,NA,NA,75%,25%
sub1,3,D,442,1,978,c,p,s,f,NA,NA,75%,25%
sub1,3,D,443,1,973,i,p,r,s,3,1,75%,25%
sub1,3,D,444,1,1057,c,m,s,s,3,2,75%,25%
sub1,3,D,445,1,1068,i,m,r,s,3,3,75%,25%
sub1,3,D,446,1,948,c,p,s,s,3,4,75%,25%
sub1,3,D,447,1,793,c,m,s,f,NA,NA,75%,25%
sub1,3,D,448,1,1034,c,p,s,f,NA,NA,75%,25%
sub1,3,D,449,1,1305,c,m,s,f,NA,NA,75%,25%
sub1,3,D,450,1,976,c,p,s,f,NA,NA,75%,25%
sub1,3,D,451,1,889,c,m,s,f,NA,NA,75%,25%
sub1,3,D,452,1,893,c,m,r,s,2,1,75%,25%
sub1,3,D,453,1,871,c,m,r,s,2,2,75%,25%
sub1,3,D,454,0,997,i,p,s,s,2,3,75%,25%
sub1,3,D,455,1,1024,i,m,s,s,2,4,75%,25%
sub1,3,D,456,1,1114,i,m,r,f,NA,NA,75%,25%
sub1,3,D,457,1,1059,c,p,s,f,NA,NA,75%,25%
sub1,3,D,458,1,1037,c,m,s,f,NA,NA,75%,25%
sub1,3,D,459,1,1036,c,p,s,f,NA,NA,75%,25%
sub1,3,D,460,1,1000,c,m,s,f,NA,NA,75%,25%
sub1,3,D,461,1,958,c,p,s,f,NA,NA,75%,25%
sub1,3,D,462,1,1160,i,p,r,s,3,1,75%,25%
sub1,3,D,463,1,1089,c,m,s,s,3,2,75%,25%
sub1,3,D,464,1,1150,i,m,r,s,3,3,75%,25%
sub1,3,D,465,1,1243,c,p,s,s,3,4,75%,25%
sub1,3,D,466,1,955,i,p,r,f,NA,NA,75%,25%
sub1,3,D,467,1,890,c,m,s,f,NA,NA,75%,25%
sub1,3,D,468,1,891,c,p,s,f,NA,NA,75%,25%
sub1,3,D,469,1,953,c,m,s,f,NA,NA,75%,25%
sub1,3,D,470,1,1308,c,p,s,f,NA,NA,75%,25%
sub1,3,D,471,1,1161,c,m,s,f,NA,NA,75%,25%
sub1,3,D,472,1,819,i,m,r,s,3,1,75%,25%
sub1,3,D,473,1,935,c,p,s,s,3,2,75%,25%
sub1,3,D,474,1,984,i,p,r,s,3,3,75%,25%
sub1,3,D,475,1,1100,c,m,s,s,3,4,75%,25%
sub1,3,D,476,1,1035,i,m,r,f,NA,NA,75%,25%
sub1,3,D,477,1,1094,c,p,s,f,NA,NA,75%,25%
sub1,3,D,478,1,1145,c,m,s,f,NA,NA,75%,25%
sub1,3,D,479,1,937,c,p,s,f,NA,NA,75%,25%
sub1,3,D,480,1,979,c,m,s,f,NA,NA,75%,25%
sub1,4,C,482,1,982,c,p,r,f,NA,NA,25%,25%
sub1,4,C,483,1,1567,c,p,r,f,NA,NA,25%,25%
sub1,4,C,484,1,1165,c,p,r,f,NA,NA,25%,25%
sub1,4,C,485,1,1140,c,p,r,f,NA,NA,25%,25%
sub1,4,C,486,1,983,c,m,s,s,4,1,25%,25%
sub1,4,C,487,1,1145,c,p,s,s,4,2,25%,25%
sub1,4,C,488,0,1057,i,p,r,s,4,3,25%,25%
sub1,4,C,489,1,1038,i,p,r,s,4,4,25%,25%
sub1,4,C,490,1,1454,i,m,s,f,NA,NA,25%,25%
sub1,4,C,491,1,1210,c,m,r,f,NA,NA,25%,25%
sub1,4,C,492,0,NA,c,m,r,f,NA,NA,25%,25%
sub1,4,C,493,1,1115,c,m,r,f,NA,NA,25%,25%
sub1,4,C,494,1,867,c,m,r,f,NA,NA,25%,25%
sub1,4,C,495,1,965,c,m,r,f,NA,NA,25%,25%
sub1,4,C,496,1,928,i,m,r,s,3,1,25%,25%
sub1,4,C,497,1,990,c,p,s,s,3,2,25%,25%
sub1,4,C,498,0,932,i,p,r,s,3,3,25%,25%
sub1,4,C,499,1,1092,c,m,s,s,3,4,25%,25%
sub1,4,C,500,1,1089,c,m,r,f,NA,NA,25%,25%
sub1,4,C,501,1,1089,c,m,r,f,NA,NA,25%,25%
sub1,4,C,502,0,1008,c,m,r,f,NA,NA,25%,25%
sub1,4,C,503,1,999,c,m,r,f,NA,NA,25%,25%
sub1,4,C,504,1,990,c,m,r,f,NA,NA,25%,25%
sub1,4,C,505,1,1238,i,p,s,s,1,1,25%,25%
sub1,4,C,506,1,956,c,p,r,s,1,2,25%,25%
sub1,4,C,507,1,1085,i,m,s,s,1,3,25%,25%
sub1,4,C,508,1,929,c,m,r,s,1,4,25%,25%
sub1,4,C,509,1,916,c,m,r,f,NA,NA,25%,25%
sub1,4,C,510,1,900,c,m,r,f,NA,NA,25%,25%
sub1,4,C,511,1,937,c,m,r,f,NA,NA,25%,25%
sub1,4,C,512,1,877,c,m,r,f,NA,NA,25%,25%
sub1,4,C,513,1,772,c,m,r,f,NA,NA,25%,25%
sub1,4,C,514,1,869,c,m,r,f,NA,NA,25%,25%
sub1,4,C,515,1,976,c,m,r,s,2,1,25%,25%
sub1,4,C,516,1,913,c,m,r,s,2,2,25%,25%
sub1,4,C,517,0,1002,i,p,s,s,2,3,25%,25%
sub1,4,C,518,1,1082,i,m,s,s,2,4,25%,25%
sub1,4,C,519,1,943,c,m,r,f,NA,NA,25%,25%
sub1,4,C,520,1,916,c,m,r,f,NA,NA,25%,25%
sub1,4,C,521,1,750,c,m,r,f,NA,NA,25%,25%
sub1,4,C,522,1,929,c,m,r,f,NA,NA,25%,25%
sub1,4,C,523,1,836,c,m,r,f,NA,NA,25%,25%
sub1,4,C,524,0,1322,i,p,s,s,1,1,25%,25%
sub1,4,C,525,1,1409,c,p,r,s,1,2,25%,25%
sub1,4,C,526,1,969,i,m,s,s,1,3,25%,25%
sub1,4,C,527,1,1012,c,m,r,s,1,4,25%,25%
sub1,4,C,528,1,920,c,m,r,f,NA,NA,25%,25%
sub1,4,C,529,1,905,c,m,r,f,NA,NA,25%,25%
sub1,4,C,530,1,955,c,m,r,f,NA,NA,25%,25%
sub1,4,C,531,1,883,c,m,r,f,NA,NA,25%,25%
sub1,4,C,532,1,832,c,m,r,f,NA,NA,25%,25%
sub1,4,C,533,1,814,c,m,r,f,NA,NA,25%,25%
sub1,4,C,534,0,1163,c,p,s,s,4,1,25%,25%
sub1,4,C,535,1,893,c,m,s,s,4,2,25%,25%
sub1,4,C,536,1,978,i,m,r,s,4,3,25%,25%
sub1,4,C,537,1,935,i,m,r,s,4,4,25%,25%
sub1,4,C,538,0,839,i,p,s,f,NA,NA,25%,25%
sub1,4,C,539,1,929,c,p,r,f,NA,NA,25%,25%
sub1,4,C,540,1,953,c,p,r,f,NA,NA,25%,25%
sub1,4,C,541,1,1031,c,p,r,f,NA,NA,25%,25%
sub1,4,C,542,1,1042,c,p,r,f,NA,NA,25%,25%
sub1,4,C,543,1,996,c,p,r,f,NA,NA,25%,25%
sub1,4,C,544,1,1194,i,m,s,s,1,1,25%,25%
sub1,4,C,545,1,1149,c,m,r,s,1,2,25%,25%
sub1,4,C,546,1,1101,i,p,s,s,1,3,25%,25%
sub1,4,C,547,1,1016,c,p,r,s,1,4,25%,25%
sub1,4,C,548,1,874,i,m,s,f,NA,NA,25%,25%
sub1,4,C,549,1,926,c,m,r,f,NA,NA,25%,25%
sub1,4,C,550,1,920,c,m,r,f,NA,NA,25%,25%
sub1,4,C,551,1,907,c,m,r,f,NA,NA,25%,25%
sub1,4,C,552,1,912,c,m,r,f,NA,NA,25%,25%
sub1,4,C,553,1,1141,c,m,r,f,NA,NA,25%,25%
sub1,4,C,554,1,1015,c,m,r,s,2,1,25%,25%
sub1,4,C,555,1,1126,c,m,r,s,2,2,25%,25%
sub1,4,C,556,1,1245,i,p,s,s,2,3,25%,25%
sub1,4,C,557,1,914,i,m,s,s,2,4,25%,25%
sub1,4,C,558,1,791,c,m,r,f,NA,NA,25%,25%
sub1,4,C,559,1,1198,c,m,r,f,NA,NA,25%,25%
sub1,4,C,560,1,831,c,m,r,f,NA,NA,25%,25%
sub1,4,C,561,1,901,c,m,r,f,NA,NA,25%,25%
sub1,4,C,562,1,892,c,m,r,f,NA,NA,25%,25%
sub1,4,C,563,1,1091,c,m,r,f,NA,NA,25%,25%
sub1,4,C,564,1,984,c,m,r,s,2,1,25%,25%
sub1,4,C,565,1,1066,c,m,r,s,2,2,25%,25%
sub1,4,C,566,0,952,i,p,s,s,2,3,25%,25%
sub1,4,C,567,1,1015,i,m,s,s,2,4,25%,25%
sub1,4,C,568,0,1055,i,p,s,f,NA,NA,25%,25%
sub1,4,C,569,1,1064,c,p,r,f,NA,NA,25%,25%
sub1,4,C,570,1,991,c,p,r,f,NA,NA,25%,25%
sub1,4,C,571,1,1124,c,p,r,f,NA,NA,25%,25%
sub1,4,C,572,1,888,c,p,r,f,NA,NA,25%,25%
sub1,4,C,573,1,813,c,p,r,f,NA,NA,25%,25%
sub1,4,C,574,1,858,c,m,s,s,4,1,25%,25%
sub1,4,C,575,1,1147,c,p,s,s,4,2,25%,25%
sub1,4,C,576,0,968,i,p,r,s,4,3,25%,25%
sub1,4,C,577,1,1042,i,p,r,s,4,4,25%,25%
sub1,4,C,578,1,1060,i,m,s,f,NA,NA,25%,25%
sub1,4,C,579,1,922,c,m,r,f,NA,NA,25%,25%
sub1,4,C,580,1,802,c,m,r,f,NA,NA,25%,25%
sub1,4,C,581,1,885,c,m,r,f,NA,NA,25%,25%
sub1,4,C,582,1,798,c,m,r,f,NA,NA,25%,25%
sub1,4,C,583,1,826,c,m,r,f,NA,NA,25%,25%
sub1,4,C,584,0,792,i,p,s,s,1,1,25%,25%
sub1,4,C,585,1,993,c,p,r,s,1,2,25%,25%
sub1,4,C,586,1,929,i,m,s,s,1,3,25%,25%
sub1,4,C,587,1,941,c,m,r,s,1,4,25%,25%
sub1,4,C,588,1,886,c,m,r,f,NA,NA,25%,25%
sub1,4,C,589,1,898,c,m,r,f,NA,NA,25%,25%
sub1,4,C,590,1,883,c,m,r,f,NA,NA,25%,25%
sub1,4,C,591,1,871,c,m,r,f,NA,NA,25%,25%
sub1,4,C,592,1,935,c,m,r,f,NA,NA,25%,25%
sub1,4,C,593,1,840,c,p,s,s,4,1,25%,25%
sub1,4,C,594,1,877,c,m,s,s,4,2,25%,25%
sub1,4,C,595,1,777,i,m,r,s,4,3,25%,25%
sub1,4,C,596,1,912,i,m,r,s,4,4,25%,25%
sub1,4,C,597,0,821,i,p,s,f,NA,NA,25%,25%
sub1,4,C,598,1,773,c,p,r,f,NA,NA,25%,25%
sub1,4,C,599,1,1199,c,p,r,f,NA,NA,25%,25%
sub1,4,C,600,1,1014,c,p,r,f,NA,NA,25%,25%
sub1,4,C,601,1,1089,c,p,r,f,NA,NA,25%,25%
sub1,4,C,602,1,870,c,p,r,f,NA,NA,25%,25%
sub1,4,C,603,1,888,i,p,r,s,3,1,25%,25%
sub1,4,C,604,1,969,c,m,s,s,3,2,25%,25%
sub1,4,C,605,0,879,i,m,r,s,3,3,25%,25%
sub1,4,C,606,1,1208,c,p,s,s,3,4,25%,25%
sub1,4,C,607,1,835,c,p,r,f,NA,NA,25%,25%
sub1,4,C,608,1,873,c,p,r,f,NA,NA,25%,25%
sub1,4,C,609,1,990,c,p,r,f,NA,NA,25%,25%
sub1,4,C,610,1,849,c,p,r,f,NA,NA,25%,25%
sub1,4,C,611,1,968,c,p,r,f,NA,NA,25%,25%
sub1,4,C,612,1,910,c,p,r,f,NA,NA,25%,25%
sub1,4,C,613,1,952,c,p,r,s,2,1,25%,25%
sub1,4,C,614,1,933,c,p,r,s,2,2,25%,25%
sub1,4,C,615,1,963,i,m,s,s,2,3,25%,25%
sub1,4,C,616,1,998,i,p,s,s,2,4,25%,25%
sub1,4,C,617,1,942,i,m,s,f,NA,NA,25%,25%
sub1,4,C,618,1,1162,c,m,r,f,NA,NA,25%,25%
sub1,4,C,619,1,843,c,m,r,f,NA,NA,25%,25%
sub1,4,C,620,1,973,c,m,r,f,NA,NA,25%,25%
sub1,4,C,621,1,861,i,m,r,s,3,1,25%,25%
sub1,4,C,622,1,1162,c,p,s,s,3,2,25%,25%
sub1,4,C,623,0,1000,i,p,r,s,3,3,25%,25%
sub1,4,C,624,1,1017,c,m,s,s,3,4,25%,25%
sub1,4,C,625,1,877,c,m,r,f,NA,NA,25%,25%
sub1,4,C,626,1,843,c,m,r,f,NA,NA,25%,25%
sub1,4,C,627,0,NA,c,m,r,f,NA,NA,25%,25%
sub1,4,C,628,1,1282,c,m,r,f,NA,NA,25%,25%
sub1,4,C,629,1,1106,c,m,r,f,NA,NA,25%,25%
sub1,4,C,630,1,1011,c,m,r,f,NA,NA,25%,25%
sub1,4,C,631,1,887,i,m,r,s,3,1,25%,25%
sub1,4,C,632,1,915,c,p,s,s,3,2,25%,25%
sub1,4,C,633,1,979,i,p,r,s,3,3,25%,25%
sub1,4,C,634,1,1006,c,m,s,s,3,4,25%,25%
sub1,4,C,635,1,1153,i,p,s,f,NA,NA,25%,25%
sub1,4,C,636,1,935,c,p,r,f,NA,NA,25%,25%
sub1,4,C,637,1,776,c,p,r,f,NA,NA,25%,25%
sub1,4,C,638,1,909,c,p,r,f,NA,NA,25%,25%
sub1,4,C,639,1,836,c,p,r,f,NA,NA,25%,25%
sub1,4,C,640,1,968,c,p,r,f,NA,NA,25%,25%
sub2,1,C,2,1,1150,c,m,r,f,NA,NA,25%,25%
sub2,1,C,3,1,1049,c,m,r,f,NA,NA,25%,25%
sub2,1,C,4,1,904,c,m,r,f,NA,NA,25%,25%
sub2,1,C,5,1,883,c,m,r,f,NA,NA,25%,25%
sub2,1,C,6,0,1097,i,p,s,s,1,1,25%,25%
sub2,1,C,7,1,1018,c,p,r,s,1,2,25%,25%
sub2,1,C,8,1,1334,i,m,s,s,1,3,25%,25%
sub2,1,C,9,1,1308,c,m,r,s,1,4,25%,25%
sub2,1,C,10,0,1164,c,m,r,f,NA,NA,25%,25%
sub2,1,C,11,1,1087,c,m,r,f,NA,NA,25%,25%
sub2,1,C,12,1,994,c,m,r,f,NA,NA,25%,25%
sub2,1,C,13,1,1341,c,m,r,f,NA,NA,25%,25%
sub2,1,C,14,1,1283,c,m,r,f,NA,NA,25%,25%
sub2,1,C,15,1,897,c,m,r,f,NA,NA,25%,25%
sub2,1,C,16,0,1183,i,p,s,s,1,1,25%,25%
sub2,1,C,17,1,761,c,p,r,s,1,2,25%,25%
sub2,1,C,18,0,1133,i,m,s,s,1,3,25%,25%
sub2,1,C,19,1,880,c,m,r,s,1,4,25%,25%
sub2,1,C,20,1,1115,c,m,r,f,NA,NA,25%,25%
sub2,1,C,21,1,928,c,m,r,f,NA,NA,25%,25%
sub2,1,C,22,1,860,c,m,r,f,NA,NA,25%,25%
sub2,1,C,23,1,1018,c,m,r,f,NA,NA,25%,25%
sub2,1,C,24,1,991,c,m,r,f,NA,NA,25%,25%
sub2,1,C,25,1,957,c,m,r,f,NA,NA,25%,25%
sub2,1,C,26,1,1129,i,p,s,s,1,1,25%,25%
sub2,1,C,27,1,981,c,p,r,s,1,2,25%,25%
sub2,1,C,28,0,1118,i,m,s,s,1,3,25%,25%
sub2,1,C,29,1,934,c,m,r,s,1,4,25%,25%
sub2,1,C,30,1,1115,i,p,s,f,NA,NA,25%,25%
sub2,1,C,31,1,1051,c,p,r,f,NA,NA,25%,25%
sub2,1,C,32,1,1024,c,p,r,f,NA,NA,25%,25%
sub2,1,C,33,1,983,c,p,r,f,NA,NA,25%,25%
sub2,1,C,34,1,931,c,p,r,f,NA,NA,25%,25%
sub2,1,C,35,1,1028,i,p,r,s,3,1,25%,25%
sub2,1,C,36,1,1135,c,m,s,s,3,2,25%,25%
sub2,1,C,37,1,977,i,m,r,s,3,3,25%,25%
sub2,1,C,38,1,1249,c,p,s,s,3,4,25%,25%
sub2,1,C,39,1,1004,c,p,r,f,NA,NA,25%,25%
sub2,1,C,40,1,932,c,p,r,f,NA,NA,25%,25%
sub2,1,C,41,1,841,c,p,r,f,NA,NA,25%,25%
sub2,1,C,42,1,1113,c,p,r,f,NA,NA,25%,25%
sub2,1,C,43,1,879,c,p,r,f,NA,NA,25%,25%
sub2,1,C,44,1,985,c,m,s,s,4,1,25%,25%
sub2,1,C,45,1,1069,c,p,s,s,4,2,25%,25%
sub2,1,C,46,1,1174,i,p,r,s,4,3,25%,25%
sub2,1,C,47,1,1075,i,p,r,s,4,4,25%,25%
sub2,1,C,48,1,1100,i,m,s,f,NA,NA,25%,25%
sub2,1,C,49,1,884,c,m,r,f,NA,NA,25%,25%
sub2,1,C,50,1,767,c,m,r,f,NA,NA,25%,25%
sub2,1,C,51,1,883,c,m,r,f,NA,NA,25%,25%
sub2,1,C,52,1,871,c,m,r,f,NA,NA,25%,25%
sub2,1,C,53,1,964,i,m,r,s,3,1,25%,25%
sub2,1,C,54,1,1041,c,p,s,s,3,2,25%,25%
sub2,1,C,55,1,1233,i,p,r,s,3,3,25%,25%
sub2,1,C,56,1,1119,c,m,s,s,3,4,25%,25%
sub2,1,C,57,1,1313,i,p,s,f,NA,NA,25%,25%
sub2,1,C,58,1,952,c,p,r,f,NA,NA,25%,25%
sub2,1,C,59,1,923,c,p,r,f,NA,NA,25%,25%
sub2,1,C,60,1,997,c,p,r,f,NA,NA,25%,25%
sub2,1,C,61,1,1024,c,p,r,f,NA,NA,25%,25%
sub2,1,C,62,1,882,c,p,r,f,NA,NA,25%,25%
sub2,1,C,63,1,1241,c,m,s,s,4,1,25%,25%
sub2,1,C,64,1,947,c,p,s,s,4,2,25%,25%
sub2,1,C,65,1,1061,i,p,r,s,4,3,25%,25%
sub2,1,C,66,1,1011,i,p,r,s,4,4,25%,25%
sub2,1,C,67,1,967,c,p,r,f,NA,NA,25%,25%
sub2,1,C,68,1,1025,c,p,r,f,NA,NA,25%,25%
sub2,1,C,69,1,933,c,p,r,f,NA,NA,25%,25%
sub2,1,C,70,1,904,c,p,r,f,NA,NA,25%,25%
sub2,1,C,71,1,919,c,p,r,f,NA,NA,25%,25%
sub2,1,C,72,1,855,c,p,r,f,NA,NA,25%,25%
sub2,1,C,73,1,1194,c,p,r,s,2,1,25%,25%
sub2,1,C,74,1,934,c,p,r,s,2,2,25%,25%
sub2,1,C,75,1,1100,i,m,s,s,2,3,25%,25%
sub2,1,C,76,1,1109,i,p,s,s,2,4,25%,25%
sub2,1,C,77,1,1356,i,m,s,f,NA,NA,25%,25%
sub2,1,C,78,1,1046,c,m,r,f,NA,NA,25%,25%
sub2,1,C,79,1,929,c,m,r,f,NA,NA,25%,25%
sub2,1,C,80,1,1070,c,m,r,f,NA,NA,25%,25%
sub2,1,C,81,1,968,c,m,r,f,NA,NA,25%,25%
sub2,1,C,82,1,892,c,m,r,f,NA,NA,25%,25%
sub2,1,C,83,1,919,i,m,r,s,3,1,25%,25%
sub2,1,C,84,1,1125,c,p,s,s,3,2,25%,25%
sub2,1,C,85,1,764,i,p,r,s,3,3,25%,25%
sub2,1,C,86,1,989,c,m,s,s,3,4,25%,25%
sub2,1,C,87,1,1110,i,p,s,f,NA,NA,25%,25%
sub2,1,C,88,1,723,c,p,r,f,NA,NA,25%,25%
sub2,1,C,89,1,973,c,p,r,f,NA,NA,25%,25%
sub2,1,C,90,1,1017,c,p,r,f,NA,NA,25%,25%
sub2,1,C,91,1,833,c,p,r,f,NA,NA,25%,25%
sub2,1,C,92,1,958,c,p,r,f,NA,NA,25%,25%
sub2,1,C,93,1,936,c,p,r,s,2,1,25%,25%
sub2,1,C,94,1,986,c,p,r,s,2,2,25%,25%
sub2,1,C,95,0,923,i,m,s,s,2,3,25%,25%
sub2,1,C,96,1,1205,i,p,s,s,2,4,25%,25%
sub2,1,C,97,1,1199,c,p,r,f,NA,NA,25%,25%
sub2,1,C,98,1,915,c,p,r,f,NA,NA,25%,25%
sub2,1,C,99,1,1024,c,p,r,f,NA,NA,25%,25%
sub2,1,C,100,1,917,c,p,r,f,NA,NA,25%,25%
sub2,1,C,101,1,782,c,p,r,f,NA,NA,25%,25%
sub2,1,C,102,1,985,c,m,s,s,4,1,25%,25%
sub2,1,C,103,1,1342,c,p,s,s,4,2,25%,25%
sub2,1,C,104,1,1331,i,p,r,s,4,3,25%,25%
sub2,1,C,105,1,1154,i,p,r,s,4,4,25%,25%
sub2,1,C,106,1,1109,c,p,r,f,NA,NA,25%,25%
sub2,1,C,107,1,1023,c,p,r,f,NA,NA,25%,25%
sub2,1,C,108,1,928,c,p,r,f,NA,NA,25%,25%
sub2,1,C,109,1,1007,c,p,r,f,NA,NA,25%,25%
sub2,1,C,110,1,1227,c,p,r,f,NA,NA,25%,25%
sub2,1,C,111,1,855,c,p,r,f,NA,NA,25%,25%
sub2,1,C,112,1,783,c,p,r,s,2,1,25%,25%
sub2,1,C,113,1,869,c,p,r,s,2,2,25%,25%
sub2,1,C,114,1,1207,i,m,s,s,2,3,25%,25%
sub2,1,C,115,1,1230,i,p,s,s,2,4,25%,25%
sub2,1,C,116,1,938,i,m,s,f,NA,NA,25%,25%
sub2,1,C,117,0,1166,c,m,r,f,NA,NA,25%,25%
sub2,1,C,118,1,880,c,m,r,f,NA,NA,25%,25%
sub2,1,C,119,1,864,c,m,r,f,NA,NA,25%,25%
sub2,1,C,120,1,870,c,m,r,f,NA,NA,25%,25%
sub2,1,C,121,1,1032,c,m,r,f,NA,NA,25%,25%
sub2,1,C,122,1,892,c,m,r,s,2,1,25%,25%
sub2,1,C,123,1,918,c,m,r,s,2,2,25%,25%
sub2,1,C,124,1,1318,i,p,s,s,2,3,25%,25%
sub2,1,C,125,1,1222,i,m,s,s,2,4,25%,25%
sub2,1,C,126,0,1144,i,p,s,f,NA,NA,25%,25%
sub2,1,C,127,1,936,c,p,r,f,NA,NA,25%,25%
sub2,1,C,128,1,953,c,p,r,f,NA,NA,25%,25%
sub2,1,C,129,1,956,c,p,r,f,NA,NA,25%,25%
sub2,1,C,130,1,863,c,p,r,f,NA,NA,25%,25%
sub2,1,C,131,1,897,c,p,r,f,NA,NA,25%,25%
sub2,1,C,132,1,1012,c,m,s,s,4,1,25%,25%
sub2,1,C,133,1,852,c,p,s,s,4,2,25%,25%
sub2,1,C,134,1,1124,i,p,r,s,4,3,25%,25%
sub2,1,C,135,1,927,i,p,r,s,4,4,25%,25%
sub2,1,C,136,1,1225,i,m,s,f,NA,NA,25%,25%
sub2,1,C,137,1,1383,c,m,r,f,NA,NA,25%,25%
sub2,1,C,138,1,844,c,m,r,f,NA,NA,25%,25%
sub2,1,C,139,1,1000,c,m,r,f,NA,NA,25%,25%
sub2,1,C,140,1,1163,c,m,r,f,NA,NA,25%,25%
sub2,1,C,141,1,875,c,m,r,f,NA,NA,25%,25%
sub2,1,C,142,1,1036,i,p,s,s,1,1,25%,25%
sub2,1,C,143,1,904,c,p,r,s,1,2,25%,25%
sub2,1,C,144,1,1207,i,m,s,s,1,3,25%,25%
sub2,1,C,145,1,1002,c,m,r,s,1,4,25%,25%
sub2,1,C,146,1,1165,c,m,r,f,NA,NA,25%,25%
sub2,1,C,147,1,1031,c,m,r,f,NA,NA,25%,25%
sub2,1,C,148,1,819,c,m,r,f,NA,NA,25%,25%
sub2,1,C,149,1,884,c,m,r,f,NA,NA,25%,25%
sub2,1,C,150,1,978,c,m,r,f,NA,NA,25%,25%
sub2,1,C,151,0,809,i,m,r,s,3,1,25%,25%
sub2,1,C,152,1,1169,c,p,s,s,3,2,25%,25%
sub2,1,C,153,1,1153,i,p,r,s,3,3,25%,25%
sub2,1,C,154,1,1350,c,m,s,s,3,4,25%,25%
sub2,1,C,155,1,769,c,m,r,f,NA,NA,25%,25%
sub2,1,C,156,1,1111,c,m,r,f,NA,NA,25%,25%
sub2,1,C,157,1,934,c,m,r,f,NA,NA,25%,25%
sub2,1,C,158,1,957,c,m,r,f,NA,NA,25%,25%
sub2,1,C,159,1,939,c,m,r,f,NA,NA,25%,25%
sub2,1,C,160,1,1002,c,m,r,f,NA,NA,25%,25%
sub2,2,D,162,1,884,c,m,s,f,NA,NA,75%,25%
sub2,2,D,163,1,1089,c,p,s,f,NA,NA,75%,25%
sub2,2,D,164,1,1061,c,m,s,f,NA,NA,75%,25%
sub2,2,D,165,1,1141,c,p,s,f,NA,NA,75%,25%
sub2,2,D,166,1,1165,i,m,s,s,1,1,75%,25%
sub2,2,D,167,1,1142,c,m,r,s,1,2,75%,25%
sub2,2,D,168,1,1099,i,p,s,s,1,3,75%,25%
sub2,2,D,169,1,953,c,p,r,s,1,4,75%,25%
sub2,2,D,170,1,1116,c,m,s,f,NA,NA,75%,25%
sub2,2,D,171,1,1054,c,p,s,f,NA,NA,75%,25%
sub2,2,D,172,0,NA,c,m,s,f,NA,NA,75%,25%
sub2,2,D,173,0,NA,c,p,s,f,NA,NA,75%,25%
sub2,2,D,174,1,937,c,m,s,f,NA,NA,75%,25%
sub2,2,D,175,0,1238,i,p,s,s,1,1,75%,25%
sub2,2,D,176,1,897,c,p,r,s,1,2,75%,25%
sub2,2,D,177,0,1004,i,m,s,s,1,3,75%,25%
sub2,2,D,178,1,1141,c,m,r,s,1,4,75%,25%
sub2,2,D,179,1,938,c,p,s,f,NA,NA,75%,25%
sub2,2,D,180,1,1144,c,m,s,f,NA,NA,75%,25%
sub2,2,D,181,1,1049,c,p,s,f,NA,NA,75%,25%
sub2,2,D,182,1,882,c,m,s,f,NA,NA,75%,25%
sub2,2,D,183,1,1057,c,p,s,f,NA,NA,75%,25%
sub2,2,D,184,1,1300,c,m,s,f,NA,NA,75%,25%
sub2,2,D,185,1,1127,i,p,s,s,1,1,75%,25%
sub2,2,D,186,1,998,c,p,r,s,1,2,75%,25%
sub2,2,D,187,0,1202,i,m,s,s,1,3,75%,25%
sub2,2,D,188,1,942,c,m,r,s,1,4,75%,25%
sub2,2,D,189,1,915,i,m,r,f,NA,NA,75%,25%
sub2,2,D,190,1,1313,c,p,s,f,NA,NA,75%,25%
sub2,2,D,191,0,955,c,m,s,f,NA,NA,75%,25%
sub2,2,D,192,1,1441,c,p,s,f,NA,NA,75%,25%
sub2,2,D,193,1,1281,c,m,s,f,NA,NA,75%,25%
sub2,2,D,194,1,1113,c,p,s,f,NA,NA,75%,25%
sub2,2,D,195,0,1076,i,p,r,s,3,1,75%,25%
sub2,2,D,196,1,1291,c,m,s,s,3,2,75%,25%
sub2,2,D,197,0,1257,i,m,r,s,3,3,75%,25%
sub2,2,D,198,1,926,c,p,s,s,3,4,75%,25%
sub2,2,D,199,1,1140,i,p,r,f,NA,NA,75%,25%
sub2,2,D,200,1,1048,c,m,s,f,NA,NA,75%,25%
sub2,2,D,201,1,934,c,p,s,f,NA,NA,75%,25%
sub2,2,D,202,0,1202,c,m,s,f,NA,NA,75%,25%
sub2,2,D,203,1,1197,c,p,s,f,NA,NA,75%,25%
sub2,2,D,204,1,1008,c,m,s,s,4,1,75%,25%
sub2,2,D,205,1,1149,c,p,s,s,4,2,75%,25%
sub2,2,D,206,1,893,i,p,r,s,4,3,75%,25%
sub2,2,D,207,0,912,i,p,r,s,4,4,75%,25%
sub2,2,D,208,1,1075,i,p,r,f,NA,NA,75%,25%
sub2,2,D,209,1,1171,c,m,s,f,NA,NA,75%,25%
sub2,2,D,210,1,1102,c,p,s,f,NA,NA,75%,25%
sub2,2,D,211,0,1206,c,m,s,f,NA,NA,75%,25%
sub2,2,D,212,1,894,c,p,s,f,NA,NA,75%,25%
sub2,2,D,213,1,1215,c,m,s,f,NA,NA,75%,25%
sub2,2,D,214,1,1010,i,m,r,s,3,1,75%,25%
sub2,2,D,215,1,1224,c,p,s,s,3,2,75%,25%
sub2,2,D,216,1,1047,i,p,r,s,3,3,75%,25%
sub2,2,D,217,0,1038,c,m,s,s,3,4,75%,25%
sub2,2,D,218,0,938,i,m,r,f,NA,NA,75%,25%
sub2,2,D,219,1,1173,c,p,s,f,NA,NA,75%,25%
sub2,2,D,220,1,1012,c,m,s,f,NA,NA,75%,25%
sub2,2,D,221,1,1358,c,p,s,f,NA,NA,75%,25%
sub2,2,D,222,1,1393,c,m,s,f,NA,NA,75%,25%
sub2,2,D,223,0,1214,c,p,s,f,NA,NA,75%,25%
sub2,2,D,224,1,886,c,m,s,s,4,1,75%,25%
sub2,2,D,225,1,1013,c,p,s,s,4,2,75%,25%
sub2,2,D,226,1,1212,i,p,r,s,4,3,75%,25%
sub2,2,D,227,1,1381,i,p,r,s,4,4,75%,25%
sub2,2,D,228,1,1176,c,m,s,f,NA,NA,75%,25%
sub2,2,D,229,1,1083,c,p,s,f,NA,NA,75%,25%
sub2,2,D,230,1,1252,c,m,s,f,NA,NA,75%,25%
sub2,2,D,231,1,1161,c,p,s,f,NA,NA,75%,25%
sub2,2,D,232,1,1100,c,m,s,f,NA,NA,75%,25%
sub2,2,D,233,1,1012,c,p,s,f,NA,NA,75%,25%
sub2,2,D,234,1,952,c,p,r,s,2,1,75%,25%
sub2,2,D,235,1,933,c,p,r,s,2,2,75%,25%
sub2,2,D,236,1,1210,i,m,s,s,2,3,75%,25%
sub2,2,D,237,1,968,i,p,s,s,2,4,75%,25%
sub2,2,D,238,1,1192,c,m,s,f,NA,NA,75%,25%
sub2,2,D,239,1,1046,c,p,s,f,NA,NA,75%,25%
sub2,2,D,240,1,924,c,m,s,f,NA,NA,75%,25%
sub2,2,D,241,1,854,c,p,s,f,NA,NA,75%,25%
sub2,2,D,242,1,1171,c,m,s,f,NA,NA,75%,25%
sub2,2,D,243,1,1203,c,p,s,f,NA,NA,75%,25%
sub2,2,D,244,1,1067,i,p,r,s,3,1,75%,25%
sub2,2,D,245,1,1412,c,m,s,s,3,2,75%,25%
sub2,2,D,246,1,1210,i,m,r,s,3,3,75%,25%
sub2,2,D,247,1,1143,c,p,s,s,3,4,75%,25%
sub2,2,D,248,1,808,i,p,r,f,NA,NA,75%,25%
sub2,2,D,249,1,853,c,m,s,f,NA,NA,75%,25%
sub2,2,D,250,1,843,c,p,s,f,NA,NA,75%,25%
sub2,2,D,251,1,1175,c,m,s,f,NA,NA,75%,25%
sub2,2,D,252,1,893,c,p,s,f,NA,NA,75%,25%
sub2,2,D,253,1,1002,c,m,s,f,NA,NA,75%,25%
sub2,2,D,254,1,875,c,m,r,s,2,1,75%,25%
sub2,2,D,255,1,1319,c,m,r,s,2,2,75%,25%
sub2,2,D,256,1,1018,i,p,s,s,2,3,75%,25%
sub2,2,D,257,1,885,i,m,s,s,2,4,75%,25%
sub2,2,D,258,1,943,i,m,r,f,NA,NA,75%,25%
sub2,2,D,259,1,1266,c,p,s,f,NA,NA,75%,25%
sub2,2,D,260,1,832,c,m,s,f,NA,NA,75%,25%
sub2,2,D,261,1,1009,c,p,s,f,NA,NA,75%,25%
sub2,2,D,262,0,1076,c,m,s,f,NA,NA,75%,25%
sub2,2,D,263,0,1007,c,p,s,f,NA,NA,75%,25%
sub2,2,D,264,1,1207,c,m,s,s,4,1,75%,25%
sub2,2,D,265,1,1231,c,p,s,s,4,2,75%,25%
sub2,2,D,266,1,1069,i,p,r,s,4,3,75%,25%
sub2,2,D,267,1,1024,i,p,r,s,4,4,75%,25%
sub2,2,D,268,1,862,i,p,r,f,NA,NA,75%,25%
sub2,2,D,269,0,1146,c,m,s,f,NA,NA,75%,25%
sub2,2,D,270,1,1250,c,p,s,f,NA,NA,75%,25%
sub2,2,D,271,1,897,c,m,s,f,NA,NA,75%,25%
sub2,2,D,272,1,1074,c,p,s,f,NA,NA,75%,25%
sub2,2,D,273,1,1263,c,p,r,s,2,1,75%,25%
sub2,2,D,274,1,902,c,p,r,s,2,2,75%,25%
sub2,2,D,275,1,1315,i,m,s,s,2,3,75%,25%
sub2,2,D,276,1,1230,i,p,s,s,2,4,75%,25%
sub2,2,D,277,1,1402,c,m,s,f,NA,NA,75%,25%
sub2,2,D,278,1,1186,c,p,s,f,NA,NA,75%,25%
sub2,2,D,279,1,1042,c,m,s,f,NA,NA,75%,25%
sub2,2,D,280,1,1264,c,p,s,f,NA,NA,75%,25%
sub2,2,D,281,1,1452,c,m,s,f,NA,NA,75%,25%
sub2,2,D,282,1,1197,c,p,s,f,NA,NA,75%,25%
sub2,2,D,283,1,1501,c,p,r,s,2,1,75%,25%
sub2,2,D,284,1,1034,c,p,r,s,2,2,75%,25%
sub2,2,D,285,0,1455,i,m,s,s,2,3,75%,25%
sub2,2,D,286,1,968,i,p,s,s,2,4,75%,25%
sub2,2,D,287,1,1240,c,m,s,f,NA,NA,75%,25%
sub2,2,D,288,1,916,c,p,s,f,NA,NA,75%,25%
sub2,2,D,289,1,1063,c,m,s,f,NA,NA,75%,25%
sub2,2,D,290,1,825,c,p,s,f,NA,NA,75%,25%
sub2,2,D,291,0,1388,c,m,s,f,NA,NA,75%,25%
sub2,2,D,292,1,1286,c,p,s,f,NA,NA,75%,25%
sub2,2,D,293,1,1037,c,m,s,s,4,1,75%,25%
sub2,2,D,294,1,1142,c,p,s,s,4,2,75%,25%
sub2,2,D,295,1,1131,i,p,r,s,4,3,75%,25%
sub2,2,D,296,0,932,i,p,r,s,4,4,75%,25%
sub2,2,D,297,1,950,c,m,s,f,NA,NA,75%,25%
sub2,2,D,298,1,1022,c,p,s,f,NA,NA,75%,25%
sub2,2,D,299,1,1441,c,m,s,f,NA,NA,75%,25%
sub2,2,D,300,1,1100,c,p,s,f,NA,NA,75%,25%
sub2,2,D,301,1,1126,i,m,s,s,1,1,75%,25%
sub2,2,D,302,1,1196,c,m,r,s,1,2,75%,25%
sub2,2,D,303,0,1139,i,p,s,s,1,3,75%,25%
sub2,2,D,304,1,1065,c,p,r,s,1,4,75%,25%
sub2,2,D,305,1,1172,c,m,s,f,NA,NA,75%,25%
sub2,2,D,306,1,948,c,p,s,f,NA,NA,75%,25%
sub2,2,D,307,1,1341,c,m,s,f,NA,NA,75%,25%
sub2,2,D,308,1,1303,c,p,s,f,NA,NA,75%,25%
sub2,2,D,309,1,1365,c,m,s,f,NA,NA,75%,25%
sub2,2,D,310,1,1146,c,p,s,f,NA,NA,75%,25%
sub2,2,D,311,1,1324,i,p,r,s,3,1,75%,25%
sub2,2,D,312,1,861,c,m,s,s,3,2,75%,25%
sub2,2,D,313,1,1196,i,m,r,s,3,3,75%,25%
sub2,2,D,314,1,1086,c,p,s,s,3,4,75%,25%
sub2,2,D,315,1,958,i,p,r,f,NA,NA,75%,25%
sub2,2,D,316,1,938,c,m,s,f,NA,NA,75%,25%
sub2,2,D,317,1,1109,c,p,s,f,NA,NA,75%,25%
sub2,2,D,318,1,1184,c,m,s,f,NA,NA,75%,25%
sub2,2,D,319,1,981,c,p,s,f,NA,NA,75%,25%
sub2,2,D,320,1,943,c,m,s,f,NA,NA,75%,25%
sub2,3,B,322,1,864,i,p,s,f,NA,NA,75%,75%
sub2,3,B,323,1,918,i,m,s,f,NA,NA,75%,75%
sub2,3,B,324,1,1056,i,p,s,f,NA,NA,75%,75%
sub2,3,B,325,0,875,i,m,s,f,NA,NA,75%,75%
sub2,3,B,326,1,822,i,p,s,s,1,1,75%,75%
sub2,3,B,327,1,901,c,p,r,s,1,2,75%,75%
sub2,3,B,328,0,861,i,m,s,s,1,3,75%,75%
sub2,3,B,329,1,852,c,m,r,s,1,4,75%,75%
sub2,3,B,330,1,1139,c,m,r,f,NA,NA,75%,75%
sub2,3,B,331,1,1244,i,p,s,f,NA,NA,75%,75%
sub2,3,B,332,0,892,i,m,s,f,NA,NA,75%,75%
sub2,3,B,333,0,1362,i,p,s,f,NA,NA,75%,75%
sub2,3,B,334,1,1678,i,m,s,f,NA,NA,75%,75%
sub2,3,B,335,0,NA,i,p,s,f,NA,NA,75%,75%
sub2,3,B,336,1,1401,i,m,s,s,1,1,75%,75%
sub2,3,B,337,1,1152,c,m,r,s,1,2,75%,75%
sub2,3,B,338,0,NA,i,p,s,s,1,3,75%,75%
sub2,3,B,339,1,1153,c,p,r,s,1,4,75%,75%
sub2,3,B,340,1,881,c,p,r,f,NA,NA,75%,75%
sub2,3,B,341,0,972,i,m,s,f,NA,NA,75%,75%
sub2,3,B,342,1,1091,i,p,s,f,NA,NA,75%,75%
sub2,3,B,343,1,962,i,m,s,f,NA,NA,75%,75%
sub2,3,B,344,1,1178,i,p,s,f,NA,NA,75%,75%
sub2,3,B,345,1,1138,i,m,s,f,NA,NA,75%,75%
sub2,3,B,346,1,907,i,p,s,s,1,1,75%,75%
sub2,3,B,347,1,1170,c,p,r,s,1,2,75%,75%
sub2,3,B,348,1,1080,i,m,s,s,1,3,75%,75%
sub2,3,B,349,1,1030,c,m,r,s,1,4,75%,75%
sub2,3,B,350,1,1097,i,p,s,f,NA,NA,75%,75%
sub2,3,B,351,1,1206,i,m,s,f,NA,NA,75%,75%
sub2,3,B,352,0,915,i,p,s,f,NA,NA,75%,75%
sub2,3,B,353,0,1165,i,m,s,f,NA,NA,75%,75%
sub2,3,B,354,1,1204,i,m,r,s,3,1,75%,75%
sub2,3,B,355,1,1247,c,p,s,s,3,2,75%,75%
sub2,3,B,356,1,1070,i,p,r,s,3,3,75%,75%
sub2,3,B,357,1,920,c,m,s,s,3,4,75%,75%
sub2,3,B,358,1,855,i,p,s,f,NA,NA,75%,75%
sub2,3,B,359,0,1257,i,m,s,f,NA,NA,75%,75%
sub2,3,B,360,1,1230,i,p,s,f,NA,NA,75%,75%
sub2,3,B,361,1,1340,i,m,s,f,NA,NA,75%,75%
sub2,3,B,362,1,1378,i,p,s,f,NA,NA,75%,75%
sub2,3,B,363,1,1238,i,m,s,f,NA,NA,75%,75%
sub2,3,B,364,1,1316,c,p,s,s,4,1,75%,75%
sub2,3,B,365,1,1360,c,m,s,s,4,2,75%,75%
sub2,3,B,366,1,1284,i,m,r,s,4,3,75%,75%
sub2,3,B,367,1,1133,i,m,r,s,4,4,75%,75%
sub2,3,B,368,1,1202,i,p,s,f,NA,NA,75%,75%
sub2,3,B,369,1,1033,i,m,s,f,NA,NA,75%,75%
sub2,3,B,370,1,1005,i,p,s,f,NA,NA,75%,75%
sub2,3,B,371,1,1357,i,m,s,f,NA,NA,75%,75%
sub2,3,B,372,1,1076,i,p,s,f,NA,NA,75%,75%
sub2,3,B,373,1,1264,i,p,r,s,3,1,75%,75%
sub2,3,B,374,1,1152,c,m,s,s,3,2,75%,75%
sub2,3,B,375,0,1300,i,m,r,s,3,3,75%,75%
sub2,3,B,376,1,1012,c,p,s,s,3,4,75%,75%
sub2,3,B,377,1,1222,i,m,s,f,NA,NA,75%,75%
sub2,3,B,378,1,963,i,p,s,f,NA,NA,75%,75%
sub2,3,B,379,1,1059,i,m,s,f,NA,NA,75%,75%
sub2,3,B,380,1,1156,i,p,s,f,NA,NA,75%,75%
sub2,3,B,381,1,1209,i,m,s,f,NA,NA,75%,75%
sub2,3,B,382,1,878,i,p,s,f,NA,NA,75%,75%
sub2,3,B,383,1,1350,c,m,s,s,4,1,75%,75%
sub2,3,B,384,1,1012,c,p,s,s,4,2,75%,75%
sub2,3,B,385,1,952,i,p,r,s,4,3,75%,75%
sub2,3,B,386,1,928,i,p,r,s,4,4,75%,75%
sub2,3,B,387,0,NA,i,m,s,f,NA,NA,75%,75%
sub2,3,B,388,1,884,i,p,s,f,NA,NA,75%,75%
sub2,3,B,389,1,1200,i,m,s,f,NA,NA,75%,75%
sub2,3,B,390,1,1067,i,p,s,f,NA,NA,75%,75%
sub2,3,B,391,0,1038,i,m,s,f,NA,NA,75%,75%
sub2,3,B,392,1,930,i,p,s,f,NA,NA,75%,75%
sub2,3,B,393,1,822,c,p,r,s,2,1,75%,75%
sub2,3,B,394,1,855,c,p,r,s,2,2,75%,75%
sub2,3,B,395,1,1093,i,m,s,s,2,3,75%,75%
sub2,3,B,396,1,1085,i,p,s,s,2,4,75%,75%
sub2,3,B,397,1,1012,c,p,r,f,NA,NA,75%,75%
sub2,3,B,398,1,1279,i,m,s,f,NA,NA,75%,75%
sub2,3,B,399,1,1120,i,p,s,f,NA,NA,75%,75%
sub2,3,B,400,1,1308,i,m,s,f,NA,NA,75%,75%
sub2,3,B,401,1,1177,i,p,s,f,NA,NA,75%,75%
sub2,3,B,402,1,1211,i,m,s,f,NA,NA,75%,75%
sub2,3,B,403,1,1506,i,m,r,s,3,1,75%,75%
sub2,3,B,404,1,1086,c,p,s,s,3,2,75%,75%
sub2,3,B,405,1,1064,i,p,r,s,3,3,75%,75%
sub2,3,B,406,1,1242,c,m,s,s,3,4,75%,75%
sub2,3,B,407,1,1287,c,m,r,f,NA,NA,75%,75%
sub2,3,B,408,1,946,i,p,s,f,NA,NA,75%,75%
sub2,3,B,409,0,1008,i,m,s,f,NA,NA,75%,75%
sub2,3,B,410,1,1086,i,p,s,f,NA,NA,75%,75%
sub2,3,B,411,1,1133,i,m,s,f,NA,NA,75%,75%
sub2,3,B,412,1,1436,i,p,s,f,NA,NA,75%,75%
sub2,3,B,413,1,1418,c,p,r,s,2,1,75%,75%
sub2,3,B,414,1,1391,c,p,r,s,2,2,75%,75%
sub2,3,B,415,1,1273,i,m,s,s,2,3,75%,75%
sub2,3,B,416,1,882,i,p,s,s,2,4,75%,75%
sub2,3,B,417,1,906,c,p,r,f,NA,NA,75%,75%
sub2,3,B,418,1,1226,i,m,s,f,NA,NA,75%,75%
sub2,3,B,419,0,1048,i,p,s,f,NA,NA,75%,75%
sub2,3,B,420,1,1017,i,m,s,f,NA,NA,75%,75%
sub2,3,B,421,1,959,i,p,s,f,NA,NA,75%,75%
sub2,3,B,422,1,1123,i,m,s,f,NA,NA,75%,75%
sub2,3,B,423,1,1256,c,p,s,s,4,1,75%,75%
sub2,3,B,424,1,971,c,m,s,s,4,2,75%,75%
sub2,3,B,425,1,1206,i,m,r,s,4,3,75%,75%
sub2,3,B,426,1,1323,i,m,r,s,4,4,75%,75%
sub2,3,B,427,0,1315,i,p,s,f,NA,NA,75%,75%
sub2,3,B,428,1,1274,i,m,s,f,NA,NA,75%,75%
sub2,3,B,429,1,932,i,p,s,f,NA,NA,75%,75%
sub2,3,B,430,0,NA,i,m,s,f,NA,NA,75%,75%
sub2,3,B,431,1,1233,i,p,s,f,NA,NA,75%,75%
sub2,3,B,432,1,1176,i,m,s,f,NA,NA,75%,75%
sub2,3,B,433,1,1026,c,m,r,s,2,1,75%,75%
sub2,3,B,434,1,1278,c,m,r,s,2,2,75%,75%
sub2,3,B,435,1,1435,i,p,s,s,2,3,75%,75%
sub2,3,B,436,1,1429,i,m,s,s,2,4,75%,75%
sub2,3,B,437,1,1187,c,m,r,f,NA,NA,75%,75%
sub2,3,B,438,1,1069,i,p,s,f,NA,NA,75%,75%
sub2,3,B,439,1,1480,i,m,s,f,NA,NA,75%,75%
sub2,3,B,440,1,1238,i,p,s,f,NA,NA,75%,75%
sub2,3,B,441,1,1373,i,m,s,f,NA,NA,75%,75%
sub2,3,B,442,1,1475,i,p,s,f,NA,NA,75%,75%
sub2,3,B,443,1,1431,c,p,r,s,2,1,75%,75%
sub2,3,B,444,1,1642,c,p,r,s,2,2,75%,75%
sub2,3,B,445,1,1090,i,m,s,s,2,3,75%,75%
sub2,3,B,446,1,1345,i,p,s,s,2,4,75%,75%
sub2,3,B,447,1,1023,c,p,r,f,NA,NA,75%,75%
sub2,3,B,448,1,1090,i,m,s,f,NA,NA,75%,75%
sub2,3,B,449,1,1084,i,p,s,f,NA,NA,75%,75%
sub2,3,B,450,1,1184,i,m,s,f,NA,NA,75%,75%
sub2,3,B,451,1,1036,i,p,s,f,NA,NA,75%,75%
sub2,3,B,452,1,1181,i,m,s,f,NA,NA,75%,75%
sub2,3,B,453,1,931,c,p,s,s,4,1,75%,75%
sub2,3,B,454,1,1135,c,m,s,s,4,2,75%,75%
sub2,3,B,455,1,1187,i,m,r,s,4,3,75%,75%
sub2,3,B,456,1,1318,i,m,r,s,4,4,75%,75%
sub2,3,B,457,1,1315,c,m,r,f,NA,NA,75%,75%
sub2,3,B,458,1,1175,i,p,s,f,NA,NA,75%,75%
sub2,3,B,459,1,1051,i,m,s,f,NA,NA,75%,75%
sub2,3,B,460,1,1154,i,p,s,f,NA,NA,75%,75%
sub2,3,B,461,1,1182,i,m,s,f,NA,NA,75%,75%
sub2,3,B,462,1,929,i,p,s,f,NA,NA,75%,75%
sub2,3,B,463,1,1180,i,m,s,s,1,1,75%,75%
sub2,3,B,464,1,1271,c,m,r,s,1,2,75%,75%
sub2,3,B,465,1,947,i,p,s,s,1,3,75%,75%
sub2,3,B,466,1,1123,c,p,r,s,1,4,75%,75%
sub2,3,B,467,1,1255,i,m,s,f,NA,NA,75%,75%
sub2,3,B,468,1,1059,i,p,s,f,NA,NA,75%,75%
sub2,3,B,469,1,1220,i,m,s,f,NA,NA,75%,75%
sub2,3,B,470,1,909,i,p,s,f,NA,NA,75%,75%
sub2,3,B,471,1,1015,i,m,s,f,NA,NA,75%,75%
sub2,3,B,472,1,1187,i,p,s,f,NA,NA,75%,75%
sub2,3,B,473,1,1221,i,p,r,s,3,1,75%,75%
sub2,3,B,474,1,1140,c,m,s,s,3,2,75%,75%
sub2,3,B,475,1,1274,i,m,r,s,3,3,75%,75%
sub2,3,B,476,1,1152,c,p,s,s,3,4,75%,75%
sub2,3,B,477,1,1152,i,m,s,f,NA,NA,75%,75%
sub2,3,B,478,1,1167,i,p,s,f,NA,NA,75%,75%
sub2,3,B,479,1,1332,i,m,s,f,NA,NA,75%,75%
sub2,3,B,480,1,1241,i,p,s,f,NA,NA,75%,75%
sub2,4,A,482,1,1194,i,m,r,f,NA,NA,25%,75%
sub2,4,A,483,1,988,i,m,r,f,NA,NA,25%,75%
sub2,4,A,484,1,1137,i,m,r,f,NA,NA,25%,75%
sub2,4,A,485,0,890,i,m,r,f,NA,NA,25%,75%
sub2,4,A,486,1,1117,i,p,s,s,1,1,25%,75%
sub2,4,A,487,1,1078,c,p,r,s,1,2,25%,75%
sub2,4,A,488,1,1129,i,m,s,s,1,3,25%,75%
sub2,4,A,489,0,1387,c,m,r,s,1,4,25%,75%
sub2,4,A,490,1,1231,i,m,r,f,NA,NA,25%,75%
sub2,4,A,491,1,1039,i,m,r,f,NA,NA,25%,75%
sub2,4,A,492,1,1139,i,m,r,f,NA,NA,25%,75%
sub2,4,A,493,1,1005,i,m,r,f,NA,NA,25%,75%
sub2,4,A,494,1,1207,i,m,r,f,NA,NA,25%,75%
sub2,4,A,495,1,1481,i,p,s,s,1,1,25%,75%
sub2,4,A,496,1,1035,c,p,r,s,1,2,25%,75%
sub2,4,A,497,1,1199,i,m,s,s,1,3,25%,75%
sub2,4,A,498,1,1216,c,m,r,s,1,4,25%,75%
sub2,4,A,499,1,1077,c,p,s,f,NA,NA,25%,75%
sub2,4,A,500,1,1149,i,p,r,f,NA,NA,25%,75%
sub2,4,A,501,1,974,i,p,r,f,NA,NA,25%,75%
sub2,4,A,502,1,772,i,p,r,f,NA,NA,25%,75%
sub2,4,A,503,1,956,i,p,r,f,NA,NA,25%,75%
sub2,4,A,504,1,937,i,p,r,f,NA,NA,25%,75%
sub2,4,A,505,1,1113,i,m,s,s,1,1,25%,75%
sub2,4,A,506,1,1393,c,m,r,s,1,2,25%,75%
sub2,4,A,507,1,1033,i,p,s,s,1,3,25%,75%
sub2,4,A,508,1,1099,c,p,r,s,1,4,25%,75%
sub2,4,A,509,1,1313,c,m,s,f,NA,NA,25%,75%
sub2,4,A,510,1,1167,i,m,r,f,NA,NA,25%,75%
sub2,4,A,511,1,1205,i,m,r,f,NA,NA,25%,75%
sub2,4,A,512,1,1446,i,m,r,f,NA,NA,25%,75%
sub2,4,A,513,1,1387,i,m,r,f,NA,NA,25%,75%
sub2,4,A,514,1,963,i,m,r,f,NA,NA,25%,75%
sub2,4,A,515,1,1287,i,m,r,s,3,1,25%,75%
sub2,4,A,516,1,1153,c,p,s,s,3,2,25%,75%
sub2,4,A,517,1,1148,i,p,r,s,3,3,25%,75%
sub2,4,A,518,1,964,c,m,s,s,3,4,25%,75%
sub2,4,A,519,1,946,c,p,s,f,NA,NA,25%,75%
sub2,4,A,520,1,830,i,p,r,f,NA,NA,25%,75%
sub2,4,A,521,1,760,i,p,r,f,NA,NA,25%,75%
sub2,4,A,522,1,961,i,p,r,f,NA,NA,25%,75%
sub2,4,A,523,1,952,i,p,r,f,NA,NA,25%,75%
sub2,4,A,524,1,915,i,p,r,f,NA,NA,25%,75%
sub2,4,A,525,1,1192,c,m,s,s,4,1,25%,75%
sub2,4,A,526,1,1264,c,p,s,s,4,2,25%,75%
sub2,4,A,527,1,1036,i,p,r,s,4,3,25%,75%
sub2,4,A,528,1,1050,i,p,r,s,4,4,25%,75%
sub2,4,A,529,1,1112,c,m,s,f,NA,NA,25%,75%
sub2,4,A,530,0,983,i,m,r,f,NA,NA,25%,75%
sub2,4,A,531,1,988,i,m,r,f,NA,NA,25%,75%
sub2,4,A,532,1,907,i,m,r,f,NA,NA,25%,75%
sub2,4,A,533,1,897,i,m,r,f,NA,NA,25%,75%
sub2,4,A,534,1,955,i,m,r,f,NA,NA,25%,75%
sub2,4,A,535,1,859,i,m,r,s,3,1,25%,75%
sub2,4,A,536,1,948,c,p,s,s,3,2,25%,75%
sub2,4,A,537,1,1450,i,p,r,s,3,3,25%,75%
sub2,4,A,538,1,1004,c,m,s,s,3,4,25%,75%
sub2,4,A,539,1,1195,i,m,r,f,NA,NA,25%,75%
sub2,4,A,540,1,929,i,m,r,f,NA,NA,25%,75%
sub2,4,A,541,1,1087,i,m,r,f,NA,NA,25%,75%
sub2,4,A,542,1,894,i,m,r,f,NA,NA,25%,75%
sub2,4,A,543,1,1272,i,m,r,f,NA,NA,25%,75%
sub2,4,A,544,1,938,i,m,r,f,NA,NA,25%,75%
sub2,4,A,545,1,1151,c,p,s,s,4,1,25%,75%
sub2,4,A,546,1,1277,c,m,s,s,4,2,25%,75%
sub2,4,A,547,1,1186,i,m,r,s,4,3,25%,75%
sub2,4,A,548,1,900,i,m,r,s,4,4,25%,75%
sub2,4,A,549,1,1019,c,p,s,f,NA,NA,25%,75%
sub2,4,A,550,1,1246,i,p,r,f,NA,NA,25%,75%
sub2,4,A,551,1,1121,i,p,r,f,NA,NA,25%,75%
sub2,4,A,552,1,1024,i,p,r,f,NA,NA,25%,75%
sub2,4,A,553,1,1005,i,p,r,f,NA,NA,25%,75%
sub2,4,A,554,1,783,i,p,r,f,NA,NA,25%,75%
sub2,4,A,555,1,836,c,p,r,s,2,1,25%,75%
sub2,4,A,556,1,945,c,p,r,s,2,2,25%,75%
sub2,4,A,557,1,1425,i,m,s,s,2,3,25%,75%
sub2,4,A,558,1,1190,i,p,s,s,2,4,25%,75%
sub2,4,A,559,1,904,i,p,r,f,NA,NA,25%,75%
sub2,4,A,560,1,944,i,p,r,f,NA,NA,25%,75%
sub2,4,A,561,1,948,i,p,r,f,NA,NA,25%,75%
sub2,4,A,562,1,1061,i,p,r,f,NA,NA,25%,75%
sub2,4,A,563,1,1237,i,p,r,f,NA,NA,25%,75%
sub2,4,A,564,1,1097,i,p,r,s,3,1,25%,75%
sub2,4,A,565,1,1350,c,m,s,s,3,2,25%,75%
sub2,4,A,566,1,1150,i,m,r,s,3,3,25%,75%
sub2,4,A,567,1,1115,c,p,s,s,3,4,25%,75%
sub2,4,A,568,1,941,i,p,r,f,NA,NA,25%,75%
sub2,4,A,569,1,1032,i,p,r,f,NA,NA,25%,75%
sub2,4,A,570,1,924,i,p,r,f,NA,NA,25%,75%
sub2,4,A,571,1,938,i,p,r,f,NA,NA,25%,75%
sub2,4,A,572,1,1196,i,p,r,f,NA,NA,25%,75%
sub2,4,A,573,1,943,i,p,r,f,NA,NA,25%,75%
sub2,4,A,574,1,1085,c,p,r,s,2,1,25%,75%
sub2,4,A,575,1,730,c,p,r,s,2,2,25%,75%
sub2,4,A,576,1,1134,i,m,s,s,2,3,25%,75%
sub2,4,A,577,1,882,i,p,s,s,2,4,25%,75%
sub2,4,A,578,1,1174,c,m,s,f,NA,NA,25%,75%
sub2,4,A,579,1,1216,i,m,r,f,NA,NA,25%,75%
sub2,4,A,580,1,1342,i,m,r,f,NA,NA,25%,75%
sub2,4,A,581,1,1258,i,m,r,f,NA,NA,25%,75%
sub2,4,A,582,1,1270,i,m,r,f,NA,NA,25%,75%
sub2,4,A,583,1,1155,i,m,r,f,NA,NA,25%,75%
sub2,4,A,584,1,1220,c,p,s,s,4,1,25%,75%
sub2,4,A,585,1,1291,c,m,s,s,4,2,25%,75%
sub2,4,A,586,1,1481,i,m,r,s,4,3,25%,75%
sub2,4,A,587,1,1264,i,m,r,s,4,4,25%,75%
sub2,4,A,588,1,1274,i,m,r,f,NA,NA,25%,75%
sub2,4,A,589,1,985,i,m,r,f,NA,NA,25%,75%
sub2,4,A,590,1,1079,i,m,r,f,NA,NA,25%,75%
sub2,4,A,591,1,1147,i,m,r,f,NA,NA,25%,75%
sub2,4,A,592,1,738,c,m,r,s,2,1,25%,75%
sub2,4,A,593,1,1287,c,m,r,s,2,2,25%,75%
sub2,4,A,594,1,1269,i,p,s,s,2,3,25%,75%
sub2,4,A,595,1,1288,i,m,s,s,2,4,25%,75%
sub2,4,A,596,1,1290,i,m,r,f,NA,NA,25%,75%
sub2,4,A,597,1,1081,i,m,r,f,NA,NA,25%,75%
sub2,4,A,598,1,1070,i,m,r,f,NA,NA,25%,75%
sub2,4,A,599,1,875,i,m,r,f,NA,NA,25%,75%
sub2,4,A,600,1,1079,i,m,r,f,NA,NA,25%,75%
sub2,4,A,601,1,990,i,m,r,f,NA,NA,25%,75%
sub2,4,A,602,1,1055,c,m,r,s,2,1,25%,75%
sub2,4,A,603,1,1081,c,m,r,s,2,2,25%,75%
sub2,4,A,604,1,1143,i,p,s,s,2,3,25%,75%
sub2,4,A,605,1,1103,i,m,s,s,2,4,25%,75%
sub2,4,A,606,1,809,c,p,s,f,NA,NA,25%,75%
sub2,4,A,607,1,1245,i,p,r,f,NA,NA,25%,75%
sub2,4,A,608,1,1217,i,p,r,f,NA,NA,25%,75%
sub2,4,A,609,1,799,i,p,r,f,NA,NA,25%,75%
sub2,4,A,610,1,868,i,p,r,f,NA,NA,25%,75%
sub2,4,A,611,1,1196,c,m,s,s,4,1,25%,75%
sub2,4,A,612,1,1058,c,p,s,s,4,2,25%,75%
sub2,4,A,613,1,1098,i,p,r,s,4,3,25%,75%
sub2,4,A,614,1,1047,i,p,r,s,4,4,25%,75%
sub2,4,A,615,1,843,i,p,r,f,NA,NA,25%,75%
sub2,4,A,616,1,871,i,p,r,f,NA,NA,25%,75%
sub2,4,A,617,1,941,i,p,r,f,NA,NA,25%,75%
sub2,4,A,618,1,988,i,p,r,f,NA,NA,25%,75%
sub2,4,A,619,1,864,i,p,r,f,NA,NA,25%,75%
sub2,4,A,620,1,985,i,p,r,f,NA,NA,25%,75%
sub2,4,A,621,1,1158,i,m,s,s,1,1,25%,75%
sub2,4,A,622,1,1510,c,m,r,s,1,2,25%,75%
sub2,4,A,623,1,944,i,p,s,s,1,3,25%,75%
sub2,4,A,624,1,992,c,p,r,s,1,4,25%,75%
sub2,4,A,625,1,934,i,p,r,f,NA,NA,25%,75%
sub2,4,A,626,1,858,i,p,r,f,NA,NA,25%,75%
sub2,4,A,627,1,924,i,p,r,f,NA,NA,25%,75%
sub2,4,A,628,1,979,i,p,r,f,NA,NA,25%,75%
sub2,4,A,629,1,861,i,p,r,f,NA,NA,25%,75%
sub2,4,A,630,1,922,i,p,r,f,NA,NA,25%,75%
sub2,4,A,631,1,928,i,p,r,s,3,1,25%,75%
sub2,4,A,632,1,1415,c,m,s,s,3,2,25%,75%
sub2,4,A,633,1,1308,i,m,r,s,3,3,25%,75%
sub2,4,A,634,1,1053,c,p,s,s,3,4,25%,75%
sub2,4,A,635,1,1125,c,m,s,f,NA,NA,25%,75%
sub2,4,A,636,1,1182,i,m,r,f,NA,NA,25%,75%
sub2,4,A,637,1,1076,i,m,r,f,NA,NA,25%,75%
sub2,4,A,638,1,817,i,m,r,f,NA,NA,25%,75%
sub2,4,A,639,1,917,i,m,r,f,NA,NA,25%,75%
sub2,4,A,640,1,905,i,m,r,f,NA,NA,25%,75%
sub3,1,C,2,1,1266,c,m,r,f,NA,NA,25%,25%
sub3,1,C,3,1,887,c,m,r,f,NA,NA,25%,25%
sub3,1,C,4,1,922,c,m,r,f,NA,NA,25%,25%
sub3,1,C,5,1,991,c,m,r,f,NA,NA,25%,25%
sub3,1,C,6,1,708,i,m,r,s,3,1,25%,25%
sub3,1,C,7,1,1392,c,p,s,s,3,2,25%,25%
sub3,1,C,8,0,1184,i,p,r,s,3,3,25%,25%
sub3,1,C,9,1,885,c,m,s,s,3,4,25%,25%
sub3,1,C,10,0,NA,i,p,s,f,NA,NA,25%,25%
sub3,1,C,11,0,1012,c,p,r,f,NA,NA,25%,25%
sub3,1,C,12,1,1013,c,p,r,f,NA,NA,25%,25%
sub3,1,C,13,1,1342,c,p,r,f,NA,NA,25%,25%
sub3,1,C,14,1,1057,c,m,s,s,4,1,25%,25%
sub3,1,C,15,0,NA,c,p,s,s,4,2,25%,25%
sub3,1,C,16,1,1269,i,p,r,s,4,3,25%,25%
sub3,1,C,17,0,1186,i,p,r,s,4,4,25%,25%
sub3,1,C,18,1,1027,i,m,s,f,NA,NA,25%,25%
sub3,1,C,19,1,819,c,m,r,f,NA,NA,25%,25%
sub3,1,C,20,1,894,c,m,r,f,NA,NA,25%,25%
sub3,1,C,21,1,811,c,m,r,f,NA,NA,25%,25%
sub3,1,C,22,1,1095,c,m,r,f,NA,NA,25%,25%
sub3,1,C,23,1,1217,c,m,r,f,NA,NA,25%,25%
sub3,1,C,24,1,843,c,m,r,s,2,1,25%,25%
sub3,1,C,25,1,878,c,m,r,s,2,2,25%,25%
sub3,1,C,26,1,1015,i,p,s,s,2,3,25%,25%
sub3,1,C,27,1,1045,i,m,s,s,2,4,25%,25%
sub3,1,C,28,1,858,c,m,r,f,NA,NA,25%,25%
sub3,1,C,29,1,868,c,m,r,f,NA,NA,25%,25%
sub3,1,C,30,1,806,c,m,r,f,NA,NA,25%,25%
sub3,1,C,31,1,779,c,m,r,f,NA,NA,25%,25%
sub3,1,C,32,1,767,c,m,r,f,NA,NA,25%,25%
sub3,1,C,33,1,748,c,m,r,f,NA,NA,25%,25%
sub3,1,C,34,1,1279,i,p,s,s,1,1,25%,25%
sub3,1,C,35,1,1107,c,p,r,s,1,2,25%,25%
sub3,1,C,36,1,970,i,m,s,s,1,3,25%,25%
sub3,1,C,37,1,967,c,m,r,s,1,4,25%,25%
sub3,1,C,38,1,959,c,m,r,f,NA,NA,25%,25%
sub3,1,C,39,1,764,c,m,r,f,NA,NA,25%,25%
sub3,1,C,40,1,1368,c,m,r,f,NA,NA,25%,25%
sub3,1,C,41,1,784,c,m,r,f,NA,NA,25%,25%
sub3,1,C,42,1,1218,c,m,r,f,NA,NA,25%,25%
sub3,1,C,43,1,1044,c,m,r,f,NA,NA,25%,25%
sub3,1,C,44,0,NA,i,m,r,s,3,1,25%,25%
sub3,1,C,45,1,1017,c,p,s,s,3,2,25%,25%
sub3,1,C,46,1,762,i,p,r,s,3,3,25%,25%
sub3,1,C,47,1,1029,c,m,s,s,3,4,25%,25%
sub3,1,C,48,1,1224,i,p,s,f,NA,NA,25%,25%
sub3,1,C,49,1,782,c,p,r,f,NA,NA,25%,25%
sub3,1,C,50,1,766,c,p,r,f,NA,NA,25%,25%
sub3,1,C,51,1,938,c,p,r,f,NA,NA,25%,25%
sub3,1,C,52,1,1085,c,p,r,f,NA,NA,25%,25%
sub3,1,C,53,1,1058,c,p,r,f,NA,NA,25%,25%
sub3,1,C,54,1,941,c,p,r,s,2,1,25%,25%
sub3,1,C,55,1,1048,c,p,r,s,2,2,25%,25%
sub3,1,C,56,1,1019,i,m,s,s,2,3,25%,25%
sub3,1,C,57,1,927,i,p,s,s,2,4,25%,25%
sub3,1,C,58,1,1017,c,p,r,f,NA,NA,25%,25%
sub3,1,C,59,1,1138,c,p,r,f,NA,NA,25%,25%
sub3,1,C,60,1,846,c,p,r,f,NA,NA,25%,25%
sub3,1,C,61,1,933,c,p,r,f,NA,NA,25%,25%
sub3,1,C,62,1,1029,c,p,r,f,NA,NA,25%,25%
sub3,1,C,63,1,707,c,p,r,f,NA,NA,25%,25%
sub3,1,C,64,1,827,i,m,s,s,1,1,25%,25%
sub3,1,C,65,1,765,c,m,r,s,1,2,25%,25%
sub3,1,C,66,1,1078,i,p,s,s,1,3,25%,25%
sub3,1,C,67,1,797,c,p,r,s,1,4,25%,25%
sub3,1,C,68,1,1279,i,m,s,f,NA,NA,25%,25%
sub3,1,C,69,1,877,c,m,r,f,NA,NA,25%,25%
sub3,1,C,70,1,934,c,m,r,f,NA,NA,25%,25%
sub3,1,C,71,1,828,c,m,r,f,NA,NA,25%,25%
sub3,1,C,72,1,743,c,m,r,f,NA,NA,25%,25%
sub3,1,C,73,0,NA,i,p,s,s,1,1,25%,25%
sub3,1,C,74,1,835,c,p,r,s,1,2,25%,25%
sub3,1,C,75,0,1003,i,m,s,s,1,3,25%,25%
sub3,1,C,76,1,1229,c,m,r,s,1,4,25%,25%
sub3,1,C,77,1,1046,i,p,s,f,NA,NA,25%,25%
sub3,1,C,78,1,1109,c,p,r,f,NA,NA,25%,25%
sub3,1,C,79,1,772,c,p,r,f,NA,NA,25%,25%
sub3,1,C,80,1,913,c,p,r,f,NA,NA,25%,25%
sub3,1,C,81,1,848,c,p,r,f,NA,NA,25%,25%
sub3,1,C,82,1,800,c,p,r,f,NA,NA,25%,25%
sub3,1,C,83,1,689,c,m,s,s,4,1,25%,25%
sub3,1,C,84,1,924,c,p,s,s,4,2,25%,25%
sub3,1,C,85,0,935,i,p,r,s,4,3,25%,25%
sub3,1,C,86,1,1233,i,p,r,s,4,4,25%,25%
sub3,1,C,87,1,1017,c,p,r,f,NA,NA,25%,25%
sub3,1,C,88,1,813,c,p,r,f,NA,NA,25%,25%
sub3,1,C,89,1,910,c,p,r,f,NA,NA,25%,25%
sub3,1,C,90,1,797,c,p,r,f,NA,NA,25%,25%
sub3,1,C,91,1,620,c,p,r,f,NA,NA,25%,25%
sub3,1,C,92,0,857,i,m,s,s,1,1,25%,25%
sub3,1,C,93,1,942,c,m,r,s,1,2,25%,25%
sub3,1,C,94,1,978,i,p,s,s,1,3,25%,25%
sub3,1,C,95,1,1394,c,p,r,s,1,4,25%,25%
sub3,1,C,96,1,844,c,p,r,f,NA,NA,25%,25%
sub3,1,C,97,1,729,c,p,r,f,NA,NA,25%,25%
sub3,1,C,98,1,757,c,p,r,f,NA,NA,25%,25%
sub3,1,C,99,1,1180,c,p,r,f,NA,NA,25%,25%
sub3,1,C,100,1,762,c,p,r,f,NA,NA,25%,25%
sub3,1,C,101,1,844,c,p,r,f,NA,NA,25%,25%
sub3,1,C,102,0,728,i,p,r,s,3,1,25%,25%
sub3,1,C,103,1,958,c,m,s,s,3,2,25%,25%
sub3,1,C,104,1,1114,i,m,r,s,3,3,25%,25%
sub3,1,C,105,1,1076,c,p,s,s,3,4,25%,25%
sub3,1,C,106,1,758,c,p,r,f,NA,NA,25%,25%
sub3,1,C,107,1,961,c,p,r,f,NA,NA,25%,25%
sub3,1,C,108,1,979,c,p,r,f,NA,NA,25%,25%
sub3,1,C,109,1,672,c,p,r,f,NA,NA,25%,25%
sub3,1,C,110,1,1030,c,p,r,f,NA,NA,25%,25%
sub3,1,C,111,0,1429,c,p,r,f,NA,NA,25%,25%
sub3,1,C,112,1,846,c,m,s,s,4,1,25%,25%
sub3,1,C,113,1,793,c,p,s,s,4,2,25%,25%
sub3,1,C,114,0,814,i,p,r,s,4,3,25%,25%
sub3,1,C,115,0,NA,i,p,r,s,4,4,25%,25%
sub3,1,C,116,1,1101,c,p,r,f,NA,NA,25%,25%
sub3,1,C,117,1,805,c,p,r,f,NA,NA,25%,25%
sub3,1,C,118,1,833,c,p,r,f,NA,NA,25%,25%
sub3,1,C,119,1,868,c,p,r,f,NA,NA,25%,25%
sub3,1,C,120,1,830,c,p,r,f,NA,NA,25%,25%
sub3,1,C,121,1,796,c,p,r,f,NA,NA,25%,25%
sub3,1,C,122,1,750,c,m,s,s,4,1,25%,25%
sub3,1,C,123,1,1157,c,p,s,s,4,2,25%,25%
sub3,1,C,124,0,852,i,p,r,s,4,3,25%,25%
sub3,1,C,125,1,955,i,p,r,s,4,4,25%,25%
sub3,1,C,126,0,1006,i,m,s,f,NA,NA,25%,25%
sub3,1,C,127,1,1189,c,m,r,f,NA,NA,25%,25%
sub3,1,C,128,1,880,c,m,r,f,NA,NA,25%,25%
sub3,1,C,129,1,735,c,m,r,f,NA,NA,25%,25%
sub3,1,C,130,1,910,c,m,r,f,NA,NA,25%,25%
sub3,1,C,131,1,931,c,m,r,f,NA,NA,25%,25%
sub3,1,C,132,1,729,i,m,r,s,3,1,25%,25%
sub3,1,C,133,1,1259,c,p,s,s,3,2,25%,25%
sub3,1,C,134,1,1763,i,p,r,s,3,3,25%,25%
sub3,1,C,135,1,1260,c,m,s,s,3,4,25%,25%
sub3,1,C,136,0,1133,i,p,s,f,NA,NA,25%,25%
sub3,1,C,137,1,1158,c,p,r,f,NA,NA,25%,25%
sub3,1,C,138,0,914,c,p,r,f,NA,NA,25%,25%
sub3,1,C,139,1,746,c,p,r,f,NA,NA,25%,25%
sub3,1,C,140,1,878,c,p,r,f,NA,NA,25%,25%
sub3,1,C,141,1,852,c,p,r,s,2,1,25%,25%
sub3,1,C,142,1,733,c,p,r,s,2,2,25%,25%
sub3,1,C,143,0,823,i,m,s,s,2,3,25%,25%
sub3,1,C,144,1,1345,i,p,s,s,2,4,25%,25%
sub3,1,C,145,1,1013,c,p,r,f,NA,NA,25%,25%
sub3,1,C,146,1,860,c,p,r,f,NA,NA,25%,25%
sub3,1,C,147,1,1171,c,p,r,f,NA,NA,25%,25%
sub3,1,C,148,1,796,c,p,r,f,NA,NA,25%,25%
sub3,1,C,149,1,783,c,p,r,f,NA,NA,25%,25%
sub3,1,C,150,1,828,c,p,r,f,NA,NA,25%,25%
sub3,1,C,151,1,702,c,p,r,s,2,1,25%,25%
sub3,1,C,152,1,890,c,p,r,s,2,2,25%,25%
sub3,1,C,153,1,944,i,m,s,s,2,3,25%,25%
sub3,1,C,154,0,891,i,p,s,s,2,4,25%,25%
sub3,1,C,155,1,968,i,m,s,f,NA,NA,25%,25%
sub3,1,C,156,1,1028,c,m,r,f,NA,NA,25%,25%
sub3,1,C,157,1,897,c,m,r,f,NA,NA,25%,25%
sub3,1,C,158,1,796,c,m,r,f,NA,NA,25%,25%
sub3,1,C,159,1,774,c,m,r,f,NA,NA,25%,25%
sub3,1,C,160,1,939,c,m,r,f,NA,NA,25%,25%
sub3,2,D,162,1,1204,c,p,s,f,NA,NA,75%,25%
sub3,2,D,163,1,877,c,m,s,f,NA,NA,75%,25%
sub3,2,D,164,1,1007,c,p,s,f,NA,NA,75%,25%
sub3,2,D,165,1,830,c,m,s,f,NA,NA,75%,25%
sub3,2,D,166,1,854,i,m,r,s,3,1,75%,25%
sub3,2,D,167,1,934,c,p,s,s,3,2,75%,25%
sub3,2,D,168,1,921,i,p,r,s,3,3,75%,25%
sub3,2,D,169,1,813,c,m,s,s,3,4,75%,25%
sub3,2,D,170,0,926,i,m,r,f,NA,NA,75%,25%
sub3,2,D,171,1,1037,c,p,s,f,NA,NA,75%,25%
sub3,2,D,172,1,765,c,m,s,f,NA,NA,75%,25%
sub3,2,D,173,1,671,c,p,s,f,NA,NA,75%,25%
sub3,2,D,174,1,939,c,m,s,f,NA,NA,75%,25%
sub3,2,D,175,1,748,c,p,s,s,4,1,75%,25%
sub3,2,D,176,0,NA,c,m,s,s,4,2,75%,25%
sub3,2,D,177,0,1259,i,m,r,s,4,3,75%,25%
sub3,2,D,178,1,891,i,m,r,s,4,4,75%,25%
sub3,2,D,179,1,1179,i,m,r,f,NA,NA,75%,25%
sub3,2,D,180,1,865,c,p,s,f,NA,NA,75%,25%
sub3,2,D,181,1,1006,c,m,s,f,NA,NA,75%,25%
sub3,2,D,182,1,859,c,p,s,f,NA,NA,75%,25%
sub3,2,D,183,1,771,c,m,s,f,NA,NA,75%,25%
sub3,2,D,184,1,827,c,m,r,s,2,1,75%,25%
sub3,2,D,185,1,775,c,m,r,s,2,2,75%,25%
sub3,2,D,186,0,797,i,p,s,s,2,3,75%,25%
sub3,2,D,187,1,956,i,m,s,s,2,4,75%,25%
sub3,2,D,188,1,840,c,p,s,f,NA,NA,75%,25%
sub3,2,D,189,1,888,c,m,s,f,NA,NA,75%,25%
sub3,2,D,190,1,751,c,p,s,f,NA,NA,75%,25%
sub3,2,D,191,1,985,c,m,s,f,NA,NA,75%,25%
sub3,2,D,192,1,703,c,p,s,f,NA,NA,75%,25%
sub3,2,D,193,1,1100,i,m,s,s,1,1,75%,25%
sub3,2,D,194,1,793,c,m,r,s,1,2,75%,25%
sub3,2,D,195,0,832,i,p,s,s,1,3,75%,25%
sub3,2,D,196,1,1031,c,p,r,s,1,4,75%,25%
sub3,2,D,197,1,830,c,m,s,f,NA,NA,75%,25%
sub3,2,D,198,1,661,c,p,s,f,NA,NA,75%,25%
sub3,2,D,199,1,703,c,m,s,f,NA,NA,75%,25%
sub3,2,D,200,1,796,c,p,s,f,NA,NA,75%,25%
sub3,2,D,201,1,1066,c,m,s,f,NA,NA,75%,25%
sub3,2,D,202,1,836,c,p,s,f,NA,NA,75%,25%
sub3,2,D,203,0,831,i,p,r,s,3,1,75%,25%
sub3,2,D,204,1,1004,c,m,s,s,3,2,75%,25%
sub3,2,D,205,1,755,i,m,r,s,3,3,75%,25%
sub3,2,D,206,1,1132,c,p,s,s,3,4,75%,25%
sub3,2,D,207,0,1344,i,p,r,f,NA,NA,75%,25%
sub3,2,D,208,1,865,c,m,s,f,NA,NA,75%,25%
sub3,2,D,209,1,764,c,p,s,f,NA,NA,75%,25%
sub3,2,D,210,1,827,c,m,s,f,NA,NA,75%,25%
sub3,2,D,211,1,1026,c,p,s,f,NA,NA,75%,25%
sub3,2,D,212,1,870,c,m,s,f,NA,NA,75%,25%
sub3,2,D,213,1,698,c,m,r,s,2,1,75%,25%
sub3,2,D,214,1,989,c,m,r,s,2,2,75%,25%
sub3,2,D,215,1,1188,i,p,s,s,2,3,75%,25%
sub3,2,D,216,1,877,i,m,s,s,2,4,75%,25%
sub3,2,D,217,1,1050,i,m,r,f,NA,NA,75%,25%
sub3,2,D,218,1,893,c,p,s,f,NA,NA,75%,25%
sub3,2,D,219,1,768,c,m,s,f,NA,NA,75%,25%
sub3,2,D,220,1,914,c,p,s,f,NA,NA,75%,25%
sub3,2,D,221,1,859,c,m,s,f,NA,NA,75%,25%
sub3,2,D,222,1,802,c,p,s,f,NA,NA,75%,25%
sub3,2,D,223,1,797,i,m,s,s,1,1,75%,25%
sub3,2,D,224,1,779,c,m,r,s,1,2,75%,25%
sub3,2,D,225,0,1037,i,p,s,s,1,3,75%,25%
sub3,2,D,226,1,1218,c,p,r,s,1,4,75%,25%
sub3,2,D,227,1,987,c,m,s,f,NA,NA,75%,25%
sub3,2,D,228,1,685,c,p,s,f,NA,NA,75%,25%
sub3,2,D,229,1,680,c,m,s,f,NA,NA,75%,25%
sub3,2,D,230,1,875,c,p,s,f,NA,NA,75%,25%
sub3,2,D,231,1,665,c,m,s,f,NA,NA,75%,25%
sub3,2,D,232,0,850,i,p,s,s,1,1,75%,25%
sub3,2,D,233,0,NA,c,p,r,s,1,2,75%,25%
sub3,2,D,234,1,810,i,m,s,s,1,3,75%,25%
sub3,2,D,235,1,1030,c,m,r,s,1,4,75%,25%
sub3,2,D,236,1,673,c,p,s,f,NA,NA,75%,25%
sub3,2,D,237,1,807,c,m,s,f,NA,NA,75%,25%
sub3,2,D,238,1,790,c,p,s,f,NA,NA,75%,25%
sub3,2,D,239,0,NA,c,m,s,f,NA,NA,75%,25%
sub3,2,D,240,1,760,c,p,s,f,NA,NA,75%,25%
sub3,2,D,241,1,875,c,m,s,f,NA,NA,75%,25%
sub3,2,D,242,1,769,c,p,s,s,4,1,75%,25%
sub3,2,D,243,1,1062,c,m,s,s,4,2,75%,25%
sub3,2,D,244,1,1021,i,m,r,s,4,3,75%,25%
sub3,2,D,245,0,921,i,m,r,s,4,4,75%,25%
sub3,2,D,246,1,1093,c,p,s,f,NA,NA,75%,25%
sub3,2,D,247,1,765,c,m,s,f,NA,NA,75%,25%
sub3,2,D,248,1,954,c,p,s,f,NA,NA,75%,25%
sub3,2,D,249,1,893,c,m,s,f,NA,NA,75%,25%
sub3,2,D,250,1,736,c,p,s,f,NA,NA,75%,25%
sub3,2,D,251,1,889,c,m,s,f,NA,NA,75%,25%
sub3,2,D,252,1,928,i,p,s,s,1,1,75%,25%
sub3,2,D,253,1,1115,c,p,r,s,1,2,75%,25%
sub3,2,D,254,1,773,i,m,s,s,1,3,75%,25%
sub3,2,D,255,1,986,c,m,r,s,1,4,75%,25%
sub3,2,D,256,1,1202,c,p,s,f,NA,NA,75%,25%
sub3,2,D,257,1,743,c,m,s,f,NA,NA,75%,25%
sub3,2,D,258,1,810,c,p,s,f,NA,NA,75%,25%
sub3,2,D,259,1,815,c,m,s,f,NA,NA,75%,25%
sub3,2,D,260,1,769,c,p,s,f,NA,NA,75%,25%
sub3,2,D,261,1,761,c,m,s,f,NA,NA,75%,25%
sub3,2,D,262,0,944,i,m,r,s,3,1,75%,25%
sub3,2,D,263,1,1024,c,p,s,s,3,2,75%,25%
sub3,2,D,264,0,NA,i,p,r,s,3,3,75%,25%
sub3,2,D,265,1,791,c,m,s,s,3,4,75%,25%
sub3,2,D,266,1,785,c,p,s,f,NA,NA,75%,25%
sub3,2,D,267,1,876,c,m,s,f,NA,NA,75%,25%
sub3,2,D,268,1,716,c,p,s,f,NA,NA,75%,25%
sub3,2,D,269,1,705,c,m,s,f,NA,NA,75%,25%
sub3,2,D,270,1,662,c,p,s,f,NA,NA,75%,25%
sub3,2,D,271,1,744,c,m,s,f,NA,NA,75%,25%
sub3,2,D,272,1,658,c,p,s,s,4,1,75%,25%
sub3,2,D,273,1,842,c,m,s,s,4,2,75%,25%
sub3,2,D,274,0,1002,i,m,r,s,4,3,75%,25%
sub3,2,D,275,1,839,i,m,r,s,4,4,75%,25%
sub3,2,D,276,1,824,c,p,s,f,NA,NA,75%,25%
sub3,2,D,277,1,717,c,m,s,f,NA,NA,75%,25%
sub3,2,D,278,1,816,c,p,s,f,NA,NA,75%,25%
sub3,2,D,279,1,939,c,m,s,f,NA,NA,75%,25%
sub3,2,D,280,1,731,c,p,s,f,NA,NA,75%,25%
sub3,2,D,281,1,826,c,m,s,f,NA,NA,75%,25%
sub3,2,D,282,1,866,c,p,s,s,4,1,75%,25%
sub3,2,D,283,1,806,c,m,s,s,4,2,75%,25%
sub3,2,D,284,0,700,i,m,r,s,4,3,75%,25%
sub3,2,D,285,1,783,i,m,r,s,4,4,75%,25%
sub3,2,D,286,1,967,i,m,r,f,NA,NA,75%,25%
sub3,2,D,287,1,721,c,p,s,f,NA,NA,75%,25%
sub3,2,D,288,1,1092,c,m,s,f,NA,NA,75%,25%
sub3,2,D,289,1,771,c,p,s,f,NA,NA,75%,25%
sub3,2,D,290,1,843,c,m,s,f,NA,NA,75%,25%
sub3,2,D,291,1,876,c,p,s,f,NA,NA,75%,25%
sub3,2,D,292,0,804,i,p,r,s,3,1,75%,25%
sub3,2,D,293,1,720,c,m,s,s,3,2,75%,25%
sub3,2,D,294,1,792,i,m,r,s,3,3,75%,25%
sub3,2,D,295,1,839,c,p,s,s,3,4,75%,25%
sub3,2,D,296,1,793,i,p,r,f,NA,NA,75%,25%
sub3,2,D,297,1,777,c,m,s,f,NA,NA,75%,25%
sub3,2,D,298,1,845,c,p,s,f,NA,NA,75%,25%
sub3,2,D,299,1,1076,c,m,s,f,NA,NA,75%,25%
sub3,2,D,300,1,1066,c,p,s,f,NA,NA,75%,25%
sub3,2,D,301,1,981,c,m,s,f,NA,NA,75%,25%
sub3,2,D,302,1,797,c,m,r,s,2,1,75%,25%
sub3,2,D,303,1,786,c,m,r,s,2,2,75%,25%
sub3,2,D,304,1,968,i,p,s,s,2,3,75%,25%
sub3,2,D,305,0,999,i,m,s,s,2,4,75%,25%
sub3,2,D,306,1,1139,i,m,r,f,NA,NA,75%,25%
sub3,2,D,307,1,1118,c,p,s,f,NA,NA,75%,25%
sub3,2,D,308,1,827,c,m,s,f,NA,NA,75%,25%
sub3,2,D,309,1,730,c,p,s,f,NA,NA,75%,25%
sub3,2,D,310,1,712,c,m,s,f,NA,NA,75%,25%
sub3,2,D,311,1,767,c,m,r,s,2,1,75%,25%
sub3,2,D,312,1,799,c,m,r,s,2,2,75%,25%
sub3,2,D,313,1,970,i,p,s,s,2,3,75%,25%
sub3,2,D,314,0,879,i,m,s,s,2,4,75%,25%
sub3,2,D,315,0,824,i,m,r,f,NA,NA,75%,25%
sub3,2,D,316,1,821,c,p,s,f,NA,NA,75%,25%
sub3,2,D,317,1,856,c,m,s,f,NA,NA,75%,25%
sub3,2,D,318,1,924,c,p,s,f,NA,NA,75%,25%
sub3,2,D,319,1,996,c,m,s,f,NA,NA,75%,25%
sub3,2,D,320,1,860,c,p,s,f,NA,NA,75%,25%
sub3,3,B,322,1,1024,i,p,s,f,NA,NA,75%,75%
sub3,3,B,323,1,1155,i,m,s,f,NA,NA,75%,75%
sub3,3,B,324,1,1083,i,p,s,f,NA,NA,75%,75%
sub3,3,B,325,1,1064,i,m,s,f,NA,NA,75%,75%
sub3,3,B,326,0,1055,i,m,r,s,3,1,75%,75%
sub3,3,B,327,1,1028,c,p,s,s,3,2,75%,75%
sub3,3,B,328,1,862,i,p,r,s,3,3,75%,75%
sub3,3,B,329,1,704,c,m,s,s,3,4,75%,75%
sub3,3,B,330,1,751,c,m,r,f,NA,NA,75%,75%
sub3,3,B,331,1,934,i,p,s,f,NA,NA,75%,75%
sub3,3,B,332,1,786,i,m,s,f,NA,NA,75%,75%
sub3,3,B,333,1,869,i,p,s,f,NA,NA,75%,75%
sub3,3,B,334,1,690,i,m,s,f,NA,NA,75%,75%
sub3,3,B,335,0,832,i,p,s,f,NA,NA,75%,75%
sub3,3,B,336,1,819,c,m,s,s,4,1,75%,75%
sub3,3,B,337,1,847,c,p,s,s,4,2,75%,75%
sub3,3,B,338,0,970,i,p,r,s,4,3,75%,75%
sub3,3,B,339,1,860,i,p,r,s,4,4,75%,75%
sub3,3,B,340,1,1174,c,p,r,f,NA,NA,75%,75%
sub3,3,B,341,1,924,i,m,s,f,NA,NA,75%,75%
sub3,3,B,342,1,1145,i,p,s,f,NA,NA,75%,75%
sub3,3,B,343,1,1498,i,m,s,f,NA,NA,75%,75%
sub3,3,B,344,0,1290,i,p,s,f,NA,NA,75%,75%
sub3,3,B,345,1,884,i,m,s,f,NA,NA,75%,75%
sub3,3,B,346,1,940,c,m,r,s,2,1,75%,75%
sub3,3,B,347,1,1073,c,m,r,s,2,2,75%,75%
sub3,3,B,348,1,936,i,p,s,s,2,3,75%,75%
sub3,3,B,349,1,993,i,m,s,s,2,4,75%,75%
sub3,3,B,350,1,1016,c,m,r,f,NA,NA,75%,75%
sub3,3,B,351,1,950,i,p,s,f,NA,NA,75%,75%
sub3,3,B,352,1,789,i,m,s,f,NA,NA,75%,75%
sub3,3,B,353,1,1442,i,p,s,f,NA,NA,75%,75%
sub3,3,B,354,1,1024,i,m,s,f,NA,NA,75%,75%
sub3,3,B,355,1,887,i,p,s,f,NA,NA,75%,75%
sub3,3,B,356,1,940,i,m,s,s,1,1,75%,75%
sub3,3,B,357,1,1015,c,m,r,s,1,2,75%,75%
sub3,3,B,358,0,905,i,p,s,s,1,3,75%,75%
sub3,3,B,359,1,709,c,p,r,s,1,4,75%,75%
sub3,3,B,360,1,1285,i,m,s,f,NA,NA,75%,75%
sub3,3,B,361,1,1273,i,p,s,f,NA,NA,75%,75%
sub3,3,B,362,1,907,i,m,s,f,NA,NA,75%,75%
sub3,3,B,363,1,1319,i,p,s,f,NA,NA,75%,75%
sub3,3,B,364,1,1033,i,m,s,f,NA,NA,75%,75%
sub3,3,B,365,1,1237,i,p,s,f,NA,NA,75%,75%
sub3,3,B,366,1,1087,i,p,r,s,3,1,75%,75%
sub3,3,B,367,1,995,c,m,s,s,3,2,75%,75%
sub3,3,B,368,1,1386,i,m,r,s,3,3,75%,75%
sub3,3,B,369,1,814,c,p,s,s,3,4,75%,75%
sub3,3,B,370,0,NA,i,m,s,f,NA,NA,75%,75%
sub3,3,B,371,1,1461,i,p,s,f,NA,NA,75%,75%
sub3,3,B,372,0,1224,i,m,s,f,NA,NA,75%,75%
sub3,3,B,373,1,896,i,p,s,f,NA,NA,75%,75%
sub3,3,B,374,1,1173,i,m,s,f,NA,NA,75%,75%
sub3,3,B,375,1,1026,i,p,s,f,NA,NA,75%,75%
sub3,3,B,376,1,832,c,p,r,s,2,1,75%,75%
sub3,3,B,377,1,937,c,p,r,s,2,2,75%,75%
sub3,3,B,378,1,1137,i,m,s,s,2,3,75%,75%
sub3,3,B,379,1,938,i,p,s,s,2,4,75%,75%
sub3,3,B,380,1,869,i,m,s,f,NA,NA,75%,75%
sub3,3,B,381,0,753,i,p,s,f,NA,NA,75%,75%
sub3,3,B,382,1,1386,i,m,s,f,NA,NA,75%,75%
sub3,3,B,383,0,NA,i,p,s,f,NA,NA,75%,75%
sub3,3,B,384,1,928,i,m,s,f,NA,NA,75%,75%
sub3,3,B,385,1,1328,i,p,s,s,1,1,75%,75%
sub3,3,B,386,1,871,c,p,r,s,1,2,75%,75%
sub3,3,B,387,1,892,i,m,s,s,1,3,75%,75%
sub3,3,B,388,1,750,c,m,r,s,1,4,75%,75%
sub3,3,B,389,1,714,c,m,r,f,NA,NA,75%,75%
sub3,3,B,390,0,732,i,p,s,f,NA,NA,75%,75%
sub3,3,B,391,1,907,i,m,s,f,NA,NA,75%,75%
sub3,3,B,392,0,1207,i,p,s,f,NA,NA,75%,75%
sub3,3,B,393,1,853,i,m,s,f,NA,NA,75%,75%
sub3,3,B,394,1,855,i,p,s,f,NA,NA,75%,75%
sub3,3,B,395,1,764,i,m,s,s,1,1,75%,75%
sub3,3,B,396,1,649,c,m,r,s,1,2,75%,75%
sub3,3,B,397,0,687,i,p,s,s,1,3,75%,75%
sub3,3,B,398,1,861,c,p,r,s,1,4,75%,75%
sub3,3,B,399,1,802,c,p,r,f,NA,NA,75%,75%
sub3,3,B,400,1,1261,i,m,s,f,NA,NA,75%,75%
sub3,3,B,401,1,845,i,p,s,f,NA,NA,75%,75%
sub3,3,B,402,1,1020,i,m,s,f,NA,NA,75%,75%
sub3,3,B,403,1,830,i,p,s,f,NA,NA,75%,75%
sub3,3,B,404,1,869,i,m,s,f,NA,NA,75%,75%
sub3,3,B,405,1,829,c,p,s,s,4,1,75%,75%
sub3,3,B,406,1,838,c,m,s,s,4,2,75%,75%
sub3,3,B,407,1,1110,i,m,r,s,4,3,75%,75%
sub3,3,B,408,0,1090,i,m,r,s,4,4,75%,75%
sub3,3,B,409,1,1311,i,p,s,f,NA,NA,75%,75%
sub3,3,B,410,1,1146,i,m,s,f,NA,NA,75%,75%
sub3,3,B,411,1,1112,i,p,s,f,NA,NA,75%,75%
sub3,3,B,412,1,999,i,m,s,f,NA,NA,75%,75%
sub3,3,B,413,1,1172,i,p,s,f,NA,NA,75%,75%
sub3,3,B,414,1,1106,i,m,s,f,NA,NA,75%,75%
sub3,3,B,415,1,1236,i,p,s,s,1,1,75%,75%
sub3,3,B,416,1,1038,c,p,r,s,1,2,75%,75%
sub3,3,B,417,0,1203,i,m,s,s,1,3,75%,75%
sub3,3,B,418,1,884,c,m,r,s,1,4,75%,75%
sub3,3,B,419,1,927,i,p,s,f,NA,NA,75%,75%
sub3,3,B,420,1,1047,i,m,s,f,NA,NA,75%,75%
sub3,3,B,421,1,1105,i,p,s,f,NA,NA,75%,75%
sub3,3,B,422,1,1167,i,m,s,f,NA,NA,75%,75%
sub3,3,B,423,1,972,i,m,r,s,3,1,75%,75%
sub3,3,B,424,1,775,c,p,s,s,3,2,75%,75%
sub3,3,B,425,1,719,i,p,r,s,3,3,75%,75%
sub3,3,B,426,1,803,c,m,s,s,3,4,75%,75%
sub3,3,B,427,1,1213,i,p,s,f,NA,NA,75%,75%
sub3,3,B,428,0,832,i,m,s,f,NA,NA,75%,75%
sub3,3,B,429,1,1123,i,p,s,f,NA,NA,75%,75%
sub3,3,B,430,1,821,i,m,s,f,NA,NA,75%,75%
sub3,3,B,431,1,842,i,p,s,f,NA,NA,75%,75%
sub3,3,B,432,1,1004,c,m,s,s,4,1,75%,75%
sub3,3,B,433,1,860,c,p,s,s,4,2,75%,75%
sub3,3,B,434,1,798,i,p,r,s,4,3,75%,75%
sub3,3,B,435,1,926,i,p,r,s,4,4,75%,75%
sub3,3,B,436,1,986,i,m,s,f,NA,NA,75%,75%
sub3,3,B,437,1,914,i,p,s,f,NA,NA,75%,75%
sub3,3,B,438,1,985,i,m,s,f,NA,NA,75%,75%
sub3,3,B,439,0,823,i,p,s,f,NA,NA,75%,75%
sub3,3,B,440,1,1212,i,m,s,f,NA,NA,75%,75%
sub3,3,B,441,1,1390,i,p,s,f,NA,NA,75%,75%
sub3,3,B,442,1,1350,c,m,s,s,4,1,75%,75%
sub3,3,B,443,1,752,c,p,s,s,4,2,75%,75%
sub3,3,B,444,1,743,i,p,r,s,4,3,75%,75%
sub3,3,B,445,1,926,i,p,r,s,4,4,75%,75%
sub3,3,B,446,1,750,c,p,r,f,NA,NA,75%,75%
sub3,3,B,447,0,783,i,m,s,f,NA,NA,75%,75%
sub3,3,B,448,1,726,i,p,s,f,NA,NA,75%,75%
sub3,3,B,449,1,922,i,m,s,f,NA,NA,75%,75%
sub3,3,B,450,1,860,i,p,s,f,NA,NA,75%,75%
sub3,3,B,451,1,978,i,m,s,f,NA,NA,75%,75%
sub3,3,B,452,1,719,i,m,r,s,3,1,75%,75%
sub3,3,B,453,1,904,c,p,s,s,3,2,75%,75%
sub3,3,B,454,0,999,i,p,r,s,3,3,75%,75%
sub3,3,B,455,1,916,c,m,s,s,3,4,75%,75%
sub3,3,B,456,1,892,i,p,s,f,NA,NA,75%,75%
sub3,3,B,457,1,778,i,m,s,f,NA,NA,75%,75%
sub3,3,B,458,1,913,i,p,s,f,NA,NA,75%,75%
sub3,3,B,459,1,1077,i,m,s,f,NA,NA,75%,75%
sub3,3,B,460,0,NA,i,p,s,f,NA,NA,75%,75%
sub3,3,B,461,0,NA,c,p,r,s,2,1,75%,75%
sub3,3,B,462,0,NA,c,p,r,s,2,2,75%,75%
sub3,3,B,463,1,867,i,m,s,s,2,3,75%,75%
sub3,3,B,464,1,1098,i,p,s,s,2,4,75%,75%
sub3,3,B,465,1,700,c,p,r,f,NA,NA,75%,75%
sub3,3,B,466,0,956,i,m,s,f,NA,NA,75%,75%
sub3,3,B,467,1,783,i,p,s,f,NA,NA,75%,75%
sub3,3,B,468,0,937,i,m,s,f,NA,NA,75%,75%
sub3,3,B,469,1,819,i,p,s,f,NA,NA,75%,75%
sub3,3,B,470,1,1205,i,m,s,f,NA,NA,75%,75%
sub3,3,B,471,1,1254,c,m,r,s,2,1,75%,75%
sub3,3,B,472,1,796,c,m,r,s,2,2,75%,75%
sub3,3,B,473,1,1095,i,p,s,s,2,3,75%,75%
sub3,3,B,474,1,888,i,m,s,s,2,4,75%,75%
sub3,3,B,475,0,NA,c,m,r,f,NA,NA,75%,75%
sub3,3,B,476,1,834,i,p,s,f,NA,NA,75%,75%
sub3,3,B,477,1,1157,i,m,s,f,NA,NA,75%,75%
sub3,3,B,478,1,993,i,p,s,f,NA,NA,75%,75%
sub3,3,B,479,1,970,i,m,s,f,NA,NA,75%,75%
sub3,3,B,480,0,1297,i,p,s,f,NA,NA,75%,75%
sub3,4,A,482,1,997,i,p,r,f,NA,NA,25%,75%
sub3,4,A,483,1,1242,i,p,r,f,NA,NA,25%,75%
sub3,4,A,484,0,NA,i,p,r,f,NA,NA,25%,75%
sub3,4,A,485,1,883,i,p,r,f,NA,NA,25%,75%
sub3,4,A,486,1,938,i,p,r,s,3,1,25%,75%
sub3,4,A,487,1,944,c,m,s,s,3,2,25%,75%
sub3,4,A,488,1,1298,i,m,r,s,3,3,25%,75%
sub3,4,A,489,1,1016,c,p,s,s,3,4,25%,75%
sub3,4,A,490,1,874,c,m,s,f,NA,NA,25%,75%
sub3,4,A,491,1,991,i,m,r,f,NA,NA,25%,75%
sub3,4,A,492,1,1062,i,m,r,f,NA,NA,25%,75%
sub3,4,A,493,1,997,i,m,r,f,NA,NA,25%,75%
sub3,4,A,494,1,673,c,p,s,s,4,1,25%,75%
sub3,4,A,495,1,899,c,m,s,s,4,2,25%,75%
sub3,4,A,496,1,1058,i,m,r,s,4,3,25%,75%
sub3,4,A,497,1,1234,i,m,r,s,4,4,25%,75%
sub3,4,A,498,1,783,i,m,r,f,NA,NA,25%,75%
sub3,4,A,499,1,954,i,m,r,f,NA,NA,25%,75%
sub3,4,A,500,1,875,i,m,r,f,NA,NA,25%,75%
sub3,4,A,501,1,794,i,m,r,f,NA,NA,25%,75%
sub3,4,A,502,1,727,i,m,r,f,NA,NA,25%,75%
sub3,4,A,503,1,813,i,m,r,f,NA,NA,25%,75%
sub3,4,A,504,1,660,c,m,r,s,2,1,25%,75%
sub3,4,A,505,1,829,c,m,r,s,2,2,25%,75%
sub3,4,A,506,1,1045,i,p,s,s,2,3,25%,75%
sub3,4,A,507,1,894,i,m,s,s,2,4,25%,75%
sub3,4,A,508,1,772,c,p,s,f,NA,NA,25%,75%
sub3,4,A,509,1,1362,i,p,r,f,NA,NA,25%,75%
sub3,4,A,510,1,1053,i,p,r,f,NA,NA,25%,75%
sub3,4,A,511,1,758,i,p,r,f,NA,NA,25%,75%
sub3,4,A,512,1,790,i,p,r,f,NA,NA,25%,75%
sub3,4,A,513,1,860,i,p,r,f,NA,NA,25%,75%
sub3,4,A,514,1,988,i,m,s,s,1,1,25%,75%
sub3,4,A,515,1,790,c,m,r,s,1,2,25%,75%
sub3,4,A,516,0,661,i,p,s,s,1,3,25%,75%
sub3,4,A,517,1,1008,c,p,r,s,1,4,25%,75%
sub3,4,A,518,1,817,c,m,s,f,NA,NA,25%,75%
sub3,4,A,519,1,1079,i,m,r,f,NA,NA,25%,75%
sub3,4,A,520,1,983,i,m,r,f,NA,NA,25%,75%
sub3,4,A,521,1,735,i,m,r,f,NA,NA,25%,75%
sub3,4,A,522,1,752,i,m,r,f,NA,NA,25%,75%
sub3,4,A,523,1,736,i,m,r,f,NA,NA,25%,75%
sub3,4,A,524,1,1127,i,m,r,s,3,1,25%,75%
sub3,4,A,525,1,1032,c,p,s,s,3,2,25%,75%
sub3,4,A,526,0,1122,i,p,r,s,3,3,25%,75%
sub3,4,A,527,1,1156,c,m,s,s,3,4,25%,75%
sub3,4,A,528,1,921,c,p,s,f,NA,NA,25%,75%
sub3,4,A,529,1,970,i,p,r,f,NA,NA,25%,75%
sub3,4,A,530,1,1190,i,p,r,f,NA,NA,25%,75%
sub3,4,A,531,1,857,i,p,r,f,NA,NA,25%,75%
sub3,4,A,532,1,1232,i,p,r,f,NA,NA,25%,75%
sub3,4,A,533,1,756,i,p,r,f,NA,NA,25%,75%
sub3,4,A,534,1,768,c,p,r,s,2,1,25%,75%
sub3,4,A,535,1,807,c,p,r,s,2,2,25%,75%
sub3,4,A,536,1,1031,i,m,s,s,2,3,25%,75%
sub3,4,A,537,1,1125,i,p,s,s,2,4,25%,75%
sub3,4,A,538,1,816,i,p,r,f,NA,NA,25%,75%
sub3,4,A,539,1,906,i,p,r,f,NA,NA,25%,75%
sub3,4,A,540,1,821,i,p,r,f,NA,NA,25%,75%
sub3,4,A,541,1,792,i,p,r,f,NA,NA,25%,75%
sub3,4,A,542,1,919,i,p,r,f,NA,NA,25%,75%
sub3,4,A,543,1,850,i,p,r,f,NA,NA,25%,75%
sub3,4,A,544,1,794,i,m,s,s,1,1,25%,75%
sub3,4,A,545,1,634,c,m,r,s,1,2,25%,75%
sub3,4,A,546,1,775,i,p,s,s,1,3,25%,75%
sub3,4,A,547,1,935,c,p,r,s,1,4,25%,75%
sub3,4,A,548,1,886,c,m,s,f,NA,NA,25%,75%
sub3,4,A,549,1,1065,i,m,r,f,NA,NA,25%,75%
sub3,4,A,550,0,751,i,m,r,f,NA,NA,25%,75%
sub3,4,A,551,1,1257,i,m,r,f,NA,NA,25%,75%
sub3,4,A,552,1,721,i,m,r,f,NA,NA,25%,75%
sub3,4,A,553,1,1060,i,m,r,f,NA,NA,25%,75%
sub3,4,A,554,1,909,i,p,s,s,1,1,25%,75%
sub3,4,A,555,1,762,c,p,r,s,1,2,25%,75%
sub3,4,A,556,0,1060,i,m,s,s,1,3,25%,75%
sub3,4,A,557,1,1000,c,m,r,s,1,4,25%,75%
sub3,4,A,558,1,847,c,p,s,f,NA,NA,25%,75%
sub3,4,A,559,1,750,i,p,r,f,NA,NA,25%,75%
sub3,4,A,560,0,1126,i,p,r,f,NA,NA,25%,75%
sub3,4,A,561,1,893,i,p,r,f,NA,NA,25%,75%
sub3,4,A,562,1,848,i,p,r,f,NA,NA,25%,75%
sub3,4,A,563,0,841,c,m,s,s,4,1,25%,75%
sub3,4,A,564,1,1018,c,p,s,s,4,2,25%,75%
sub3,4,A,565,1,918,i,p,r,s,4,3,25%,75%
sub3,4,A,566,1,751,i,p,r,s,4,4,25%,75%
sub3,4,A,567,1,722,c,m,s,f,NA,NA,25%,75%
sub3,4,A,568,0,619,i,m,r,f,NA,NA,25%,75%
sub3,4,A,569,1,1178,i,m,r,f,NA,NA,25%,75%
sub3,4,A,570,1,859,i,m,r,f,NA,NA,25%,75%
sub3,4,A,571,1,990,i,m,r,f,NA,NA,25%,75%
sub3,4,A,572,0,827,i,m,r,f,NA,NA,25%,75%
sub3,4,A,573,1,1106,i,p,s,s,1,1,25%,75%
sub3,4,A,574,1,1176,c,p,r,s,1,2,25%,75%
sub3,4,A,575,1,947,i,m,s,s,1,3,25%,75%
sub3,4,A,576,1,826,c,m,r,s,1,4,25%,75%
sub3,4,A,577,1,952,i,m,r,f,NA,NA,25%,75%
sub3,4,A,578,1,1123,i,m,r,f,NA,NA,25%,75%
sub3,4,A,579,1,967,i,m,r,f,NA,NA,25%,75%
sub3,4,A,580,1,829,i,m,r,f,NA,NA,25%,75%
sub3,4,A,581,1,798,i,m,r,f,NA,NA,25%,75%
sub3,4,A,582,1,709,i,m,r,f,NA,NA,25%,75%
sub3,4,A,583,1,896,i,m,r,s,3,1,25%,75%
sub3,4,A,584,1,863,c,p,s,s,3,2,25%,75%
sub3,4,A,585,0,841,i,p,r,s,3,3,25%,75%
sub3,4,A,586,1,821,c,m,s,s,3,4,25%,75%
sub3,4,A,587,0,686,i,m,r,f,NA,NA,25%,75%
sub3,4,A,588,1,1044,i,m,r,f,NA,NA,25%,75%
sub3,4,A,589,1,1018,i,m,r,f,NA,NA,25%,75%
sub3,4,A,590,1,877,i,m,r,f,NA,NA,25%,75%
sub3,4,A,591,1,1200,i,m,r,f,NA,NA,25%,75%
sub3,4,A,592,1,776,c,p,s,s,4,1,25%,75%
sub3,4,A,593,1,1039,c,m,s,s,4,2,25%,75%
sub3,4,A,594,1,757,i,m,r,s,4,3,25%,75%
sub3,4,A,595,1,882,i,m,r,s,4,4,25%,75%
sub3,4,A,596,1,840,c,p,s,f,NA,NA,25%,75%
sub3,4,A,597,1,1068,i,p,r,f,NA,NA,25%,75%
sub3,4,A,598,1,673,i,p,r,f,NA,NA,25%,75%
sub3,4,A,599,1,817,i,p,r,f,NA,NA,25%,75%
sub3,4,A,600,1,922,i,p,r,f,NA,NA,25%,75%
sub3,4,A,601,1,1067,i,p,r,f,NA,NA,25%,75%
sub3,4,A,602,1,866,c,m,s,s,4,1,25%,75%
sub3,4,A,603,1,842,c,p,s,s,4,2,25%,75%
sub3,4,A,604,1,932,i,p,r,s,4,3,25%,75%
sub3,4,A,605,1,834,i,p,r,s,4,4,25%,75%
sub3,4,A,606,1,847,i,p,r,f,NA,NA,25%,75%
sub3,4,A,607,1,811,i,p,r,f,NA,NA,25%,75%
sub3,4,A,608,1,825,i,p,r,f,NA,NA,25%,75%
sub3,4,A,609,1,892,i,p,r,f,NA,NA,25%,75%
sub3,4,A,610,1,863,i,p,r,f,NA,NA,25%,75%
sub3,4,A,611,1,737,i,p,r,f,NA,NA,25%,75%
sub3,4,A,612,1,940,i,p,r,s,3,1,25%,75%
sub3,4,A,613,1,757,c,m,s,s,3,2,25%,75%
sub3,4,A,614,1,1023,i,m,r,s,3,3,25%,75%
sub3,4,A,615,1,838,c,p,s,s,3,4,25%,75%
sub3,4,A,616,1,579,i,p,r,f,NA,NA,25%,75%
sub3,4,A,617,1,899,i,p,r,f,NA,NA,25%,75%
sub3,4,A,618,1,845,i,p,r,f,NA,NA,25%,75%
sub3,4,A,619,1,811,i,p,r,f,NA,NA,25%,75%
sub3,4,A,620,1,750,i,p,r,f,NA,NA,25%,75%
sub3,4,A,621,0,1151,i,p,r,f,NA,NA,25%,75%
sub3,4,A,622,1,968,c,p,r,s,2,1,25%,75%
sub3,4,A,623,1,1192,c,p,r,s,2,2,25%,75%
sub3,4,A,624,1,1032,i,m,s,s,2,3,25%,75%
sub3,4,A,625,1,839,i,p,s,s,2,4,25%,75%
sub3,4,A,626,1,1049,i,p,r,f,NA,NA,25%,75%
sub3,4,A,627,1,1080,i,p,r,f,NA,NA,25%,75%
sub3,4,A,628,1,1002,i,p,r,f,NA,NA,25%,75%
sub3,4,A,629,1,1025,i,p,r,f,NA,NA,25%,75%
sub3,4,A,630,1,847,i,p,r,f,NA,NA,25%,75%
sub3,4,A,631,0,NA,c,p,r,s,2,1,25%,75%
sub3,4,A,632,1,809,c,p,r,s,2,2,25%,75%
sub3,4,A,633,0,845,i,m,s,s,2,3,25%,75%
sub3,4,A,634,1,956,i,p,s,s,2,4,25%,75%
sub3,4,A,635,1,1015,i,p,r,f,NA,NA,25%,75%
sub3,4,A,636,1,1011,i,p,r,f,NA,NA,25%,75%
sub3,4,A,637,1,827,i,p,r,f,NA,NA,25%,75%
sub3,4,A,638,1,932,i,p,r,f,NA,NA,25%,75%
sub3,4,A,639,1,864,i,p,r,f,NA,NA,25%,75%
sub3,4,A,640,1,664,i,p,r,f,NA,NA,25%,75%
sub4,1,D,2,1,1012,c,m,s,f,NA,NA,75%,25%
sub4,1,D,3,1,824,c,p,s,f,NA,NA,75%,25%
sub4,1,D,4,0,1198,c,m,s,f,NA,NA,75%,25%
sub4,1,D,5,0,1284,c,p,s,f,NA,NA,75%,25%
sub4,1,D,6,1,971,c,m,s,s,4,1,75%,25%
sub4,1,D,7,0,NA,c,p,s,s,4,2,75%,25%
sub4,1,D,8,1,1011,i,p,r,s,4,3,75%,25%
sub4,1,D,9,1,1156,i,p,r,s,4,4,75%,25%
sub4,1,D,10,1,845,i,p,r,f,NA,NA,75%,25%
sub4,1,D,11,1,1026,c,m,s,f,NA,NA,75%,25%
sub4,1,D,12,0,1093,c,p,s,f,NA,NA,75%,25%
sub4,1,D,13,0,1029,c,m,s,f,NA,NA,75%,25%
sub4,1,D,14,0,998,c,p,s,f,NA,NA,75%,25%
sub4,1,D,15,1,935,c,m,s,f,NA,NA,75%,25%
sub4,1,D,16,1,872,i,m,r,s,3,1,75%,25%
sub4,1,D,17,1,1218,c,p,s,s,3,2,75%,25%
sub4,1,D,18,0,NA,i,p,r,s,3,3,75%,25%
sub4,1,D,19,1,1030,c,m,s,s,3,4,75%,25%
sub4,1,D,20,1,998,c,p,s,f,NA,NA,75%,25%
sub4,1,D,21,0,1041,c,m,s,f,NA,NA,75%,25%
sub4,1,D,22,1,1179,c,p,s,f,NA,NA,75%,25%
sub4,1,D,23,1,933,c,m,s,f,NA,NA,75%,25%
sub4,1,D,24,1,1272,c,p,s,f,NA,NA,75%,25%
sub4,1,D,25,1,1005,c,m,s,f,NA,NA,75%,25%
sub4,1,D,26,1,1021,i,m,r,s,3,1,75%,25%
sub4,1,D,27,0,1476,c,p,s,s,3,2,75%,25%
sub4,1,D,28,1,1473,i,p,r,s,3,3,75%,25%
sub4,1,D,29,0,1295,c,m,s,s,3,4,75%,25%
sub4,1,D,30,1,1243,c,p,s,f,NA,NA,75%,25%
sub4,1,D,31,0,NA,c,m,s,f,NA,NA,75%,25%
sub4,1,D,32,1,1329,c,p,s,f,NA,NA,75%,25%
sub4,1,D,33,1,908,c,m,s,f,NA,NA,75%,25%
sub4,1,D,34,1,947,c,p,s,f,NA,NA,75%,25%
sub4,1,D,35,1,1165,c,m,s,f,NA,NA,75%,25%
sub4,1,D,36,1,1176,c,m,r,s,2,1,75%,25%
sub4,1,D,37,1,988,c,m,r,s,2,2,75%,25%
sub4,1,D,38,1,1144,i,p,s,s,2,3,75%,25%
sub4,1,D,39,1,1203,i,m,s,s,2,4,75%,25%
sub4,1,D,40,1,1172,c,p,s,f,NA,NA,75%,25%
sub4,1,D,41,1,1136,c,m,s,f,NA,NA,75%,25%
sub4,1,D,42,0,NA,c,p,s,f,NA,NA,75%,25%
sub4,1,D,43,1,942,c,m,s,f,NA,NA,75%,25%
sub4,1,D,44,1,854,c,p,s,f,NA,NA,75%,25%
sub4,1,D,45,0,NA,c,m,s,f,NA,NA,75%,25%
sub4,1,D,46,0,1444,i,p,s,s,1,1,75%,25%
sub4,1,D,47,1,914,c,p,r,s,1,2,75%,25%
sub4,1,D,48,1,1181,i,m,s,s,1,3,75%,25%
sub4,1,D,49,1,1000,c,m,r,s,1,4,75%,25%
sub4,1,D,50,1,1186,i,m,r,f,NA,NA,75%,25%
sub4,1,D,51,1,1365,c,p,s,f,NA,NA,75%,25%
sub4,1,D,52,1,976,c,m,s,f,NA,NA,75%,25%
sub4,1,D,53,1,1027,c,p,s,f,NA,NA,75%,25%
sub4,1,D,54,1,864,c,m,s,f,NA,NA,75%,25%
sub4,1,D,55,0,1028,c,p,s,f,NA,NA,75%,25%
sub4,1,D,56,1,956,c,p,r,s,2,1,75%,25%
sub4,1,D,57,1,918,c,p,r,s,2,2,75%,25%
sub4,1,D,58,0,1096,i,m,s,s,2,3,75%,25%
sub4,1,D,59,0,1308,i,p,s,s,2,4,75%,25%
sub4,1,D,60,1,1289,c,m,s,f,NA,NA,75%,25%
sub4,1,D,61,0,939,c,p,s,f,NA,NA,75%,25%
sub4,1,D,62,1,1174,c,m,s,f,NA,NA,75%,25%
sub4,1,D,63,1,892,c,p,s,f,NA,NA,75%,25%
sub4,1,D,64,1,1240,c,m,s,f,NA,NA,75%,25%
sub4,1,D,65,1,1059,c,p,s,f,NA,NA,75%,25%
sub4,1,D,66,0,1180,c,p,r,s,2,1,75%,25%
sub4,1,D,67,1,973,c,p,r,s,2,2,75%,25%
sub4,1,D,68,0,955,i,m,s,s,2,3,75%,25%
sub4,1,D,69,1,1300,i,p,s,s,2,4,75%,25%
sub4,1,D,70,1,980,c,m,s,f,NA,NA,75%,25%
sub4,1,D,71,1,1159,c,p,s,f,NA,NA,75%,25%
sub4,1,D,72,1,827,c,m,s,f,NA,NA,75%,25%
sub4,1,D,73,1,865,c,p,s,f,NA,NA,75%,25%
sub4,1,D,74,1,1193,c,m,s,f,NA,NA,75%,25%
sub4,1,D,75,1,1040,i,m,r,s,3,1,75%,25%
sub4,1,D,76,1,1136,c,p,s,s,3,2,75%,25%
sub4,1,D,77,1,970,i,p,r,s,3,3,75%,25%
sub4,1,D,78,0,NA,c,m,s,s,3,4,75%,25%
sub4,1,D,79,1,952,c,p,s,f,NA,NA,75%,25%
sub4,1,D,80,1,1020,c,m,s,f,NA,NA,75%,25%
sub4,1,D,81,1,1096,c,p,s,f,NA,NA,75%,25%
sub4,1,D,82,1,1186,c,m,s,f,NA,NA,75%,25%
sub4,1,D,83,1,1062,c,p,s,f,NA,NA,75%,25%
sub4,1,D,84,0,1280,c,m,s,f,NA,NA,75%,25%
sub4,1,D,85,1,905,i,p,s,s,1,1,75%,25%
sub4,1,D,86,1,1322,c,p,r,s,1,2,75%,25%
sub4,1,D,87,0,NA,i,m,s,s,1,3,75%,25%
sub4,1,D,88,1,961,c,m,r,s,1,4,75%,25%
sub4,1,D,89,1,819,c,p,s,f,NA,NA,75%,25%
sub4,1,D,90,1,1029,c,m,s,f,NA,NA,75%,25%
sub4,1,D,91,1,893,c,p,s,f,NA,NA,75%,25%
sub4,1,D,92,1,693,c,m,s,f,NA,NA,75%,25%
sub4,1,D,93,1,783,c,p,s,f,NA,NA,75%,25%
sub4,1,D,94,1,679,c,m,s,f,NA,NA,75%,25%
sub4,1,D,95,0,967,c,p,s,s,4,1,75%,25%
sub4,1,D,96,1,911,c,m,s,s,4,2,75%,25%
sub4,1,D,97,1,859,i,m,r,s,4,3,75%,25%
sub4,1,D,98,1,860,i,m,r,s,4,4,75%,25%
sub4,1,D,99,1,940,i,m,r,f,NA,NA,75%,25%
sub4,1,D,100,1,785,c,p,s,f,NA,NA,75%,25%
sub4,1,D,101,1,740,c,m,s,f,NA,NA,75%,25%
sub4,1,D,102,1,1079,c,p,s,f,NA,NA,75%,25%
sub4,1,D,103,0,951,c,m,s,f,NA,NA,75%,25%
sub4,1,D,104,1,967,c,p,s,f,NA,NA,75%,25%
sub4,1,D,105,1,913,c,p,r,s,2,1,75%,25%
sub4,1,D,106,1,1145,c,p,r,s,2,2,75%,25%
sub4,1,D,107,0,991,i,m,s,s,2,3,75%,25%
sub4,1,D,108,0,984,i,p,s,s,2,4,75%,25%
sub4,1,D,109,1,1073,i,p,r,f,NA,NA,75%,25%
sub4,1,D,110,1,1256,c,m,s,f,NA,NA,75%,25%
sub4,1,D,111,1,984,c,p,s,f,NA,NA,75%,25%
sub4,1,D,112,1,1103,c,m,s,f,NA,NA,75%,25%
sub4,1,D,113,0,942,c,p,s,f,NA,NA,75%,25%
sub4,1,D,114,1,1211,c,m,s,f,NA,NA,75%,25%
sub4,1,D,115,1,1040,i,p,s,s,1,1,75%,25%
sub4,1,D,116,1,1074,c,p,r,s,1,2,75%,25%
sub4,1,D,117,1,1222,i,m,s,s,1,3,75%,25%
sub4,1,D,118,1,740,c,m,r,s,1,4,75%,25%
sub4,1,D,119,1,717,i,m,r,f,NA,NA,75%,25%
sub4,1,D,120,1,974,c,p,s,f,NA,NA,75%,25%
sub4,1,D,121,0,1055,c,m,s,f,NA,NA,75%,25%
sub4,1,D,122,1,755,c,p,s,f,NA,NA,75%,25%
sub4,1,D,123,1,755,c,m,s,f,NA,NA,75%,25%
sub4,1,D,124,1,1104,c,p,s,f,NA,NA,75%,25%
sub4,1,D,125,1,1273,c,m,s,s,4,1,75%,25%
sub4,1,D,126,1,905,c,p,s,s,4,2,75%,25%
sub4,1,D,127,0,1323,i,p,r,s,4,3,75%,25%
sub4,1,D,128,0,1255,i,p,r,s,4,4,75%,25%
sub4,1,D,129,1,904,c,m,s,f,NA,NA,75%,25%
sub4,1,D,130,1,1199,c,p,s,f,NA,NA,75%,25%
sub4,1,D,131,1,1084,c,m,s,f,NA,NA,75%,25%
sub4,1,D,132,1,890,c,p,s,f,NA,NA,75%,25%
sub4,1,D,133,1,1008,c,m,s,f,NA,NA,75%,25%
sub4,1,D,134,0,1153,c,p,s,s,4,1,75%,25%
sub4,1,D,135,1,788,c,m,s,s,4,2,75%,25%
sub4,1,D,136,1,854,i,m,r,s,4,3,75%,25%
sub4,1,D,137,1,849,i,m,r,s,4,4,75%,25%
sub4,1,D,138,1,818,i,m,r,f,NA,NA,75%,25%
sub4,1,D,139,1,1064,c,p,s,f,NA,NA,75%,25%
sub4,1,D,140,1,911,c,m,s,f,NA,NA,75%,25%
sub4,1,D,141,1,742,c,p,s,f,NA,NA,75%,25%
sub4,1,D,142,1,1170,c,m,s,f,NA,NA,75%,25%
sub4,1,D,143,1,1012,i,m,r,s,3,1,75%,25%
sub4,1,D,144,1,1118,c,p,s,s,3,2,75%,25%
sub4,1,D,145,1,1122,i,p,r,s,3,3,75%,25%
sub4,1,D,146,1,1119,c,m,s,s,3,4,75%,25%
sub4,1,D,147,1,889,i,m,r,f,NA,NA,75%,25%
sub4,1,D,148,1,834,c,p,s,f,NA,NA,75%,25%
sub4,1,D,149,1,1109,c,m,s,f,NA,NA,75%,25%
sub4,1,D,150,1,894,c,p,s,f,NA,NA,75%,25%
sub4,1,D,151,1,879,i,m,s,s,1,1,75%,25%
sub4,1,D,152,1,1128,c,m,r,s,1,2,75%,25%
sub4,1,D,153,0,1011,i,p,s,s,1,3,75%,25%
sub4,1,D,154,1,945,c,p,r,s,1,4,75%,25%
sub4,1,D,155,1,818,i,p,r,f,NA,NA,75%,25%
sub4,1,D,156,1,789,c,m,s,f,NA,NA,75%,25%
sub4,1,D,157,1,991,c,p,s,f,NA,NA,75%,25%
sub4,1,D,158,1,826,c,m,s,f,NA,NA,75%,25%
sub4,1,D,159,1,801,c,p,s,f,NA,NA,75%,25%
sub4,1,D,160,1,782,c,m,s,f,NA,NA,75%,25%
sub4,2,A,162,1,1343,i,p,r,f,NA,NA,25%,75%
sub4,2,A,163,1,948,i,p,r,f,NA,NA,25%,75%
sub4,2,A,164,1,972,i,p,r,f,NA,NA,25%,75%
sub4,2,A,165,1,967,i,p,r,f,NA,NA,25%,75%
sub4,2,A,166,0,1460,c,m,s,s,4,1,25%,75%
sub4,2,A,167,1,1099,c,p,s,s,4,2,25%,75%
sub4,2,A,168,1,1222,i,p,r,s,4,3,25%,75%
sub4,2,A,169,1,892,i,p,r,s,4,4,25%,75%
sub4,2,A,170,1,907,c,m,s,f,NA,NA,25%,75%
sub4,2,A,171,1,862,i,m,r,f,NA,NA,25%,75%
sub4,2,A,172,1,1092,i,m,r,f,NA,NA,25%,75%
sub4,2,A,173,0,1026,i,m,r,f,NA,NA,25%,75%
sub4,2,A,174,1,1295,i,m,r,f,NA,NA,25%,75%
sub4,2,A,175,1,1093,i,m,r,s,3,1,25%,75%
sub4,2,A,176,1,1308,c,p,s,s,3,2,25%,75%
sub4,2,A,177,1,1240,i,p,r,s,3,3,25%,75%
sub4,2,A,178,1,1153,c,m,s,s,3,4,25%,75%
sub4,2,A,179,1,1457,c,p,s,f,NA,NA,25%,75%
sub4,2,A,180,1,1033,i,p,r,f,NA,NA,25%,75%
sub4,2,A,181,1,876,i,p,r,f,NA,NA,25%,75%
sub4,2,A,182,1,990,i,p,r,f,NA,NA,25%,75%
sub4,2,A,183,1,816,i,p,r,f,NA,NA,25%,75%
sub4,2,A,184,1,893,i,p,r,f,NA,NA,25%,75%
sub4,2,A,185,1,751,i,p,r,s,3,1,25%,75%
sub4,2,A,186,1,989,c,m,s,s,3,2,25%,75%
sub4,2,A,187,1,944,i,m,r,s,3,3,25%,75%
sub4,2,A,188,1,827,c,p,s,s,3,4,25%,75%
sub4,2,A,189,1,887,i,p,r,f,NA,NA,25%,75%
sub4,2,A,190,1,947,i,p,r,f,NA,NA,25%,75%
sub4,2,A,191,1,779,i,p,r,f,NA,NA,25%,75%
sub4,2,A,192,1,986,i,p,r,f,NA,NA,25%,75%
sub4,2,A,193,1,822,i,p,r,f,NA,NA,25%,75%
sub4,2,A,194,0,979,i,p,r,f,NA,NA,25%,75%
sub4,2,A,195,1,903,c,p,r,s,2,1,25%,75%
sub4,2,A,196,1,1089,c,p,r,s,2,2,25%,75%
sub4,2,A,197,0,904,i,m,s,s,2,3,25%,75%
sub4,2,A,198,1,978,i,p,s,s,2,4,25%,75%
sub4,2,A,199,1,883,c,m,s,f,NA,NA,25%,75%
sub4,2,A,200,1,867,i,m,r,f,NA,NA,25%,75%
sub4,2,A,201,1,1056,i,m,r,f,NA,NA,25%,75%
sub4,2,A,202,1,804,i,m,r,f,NA,NA,25%,75%
sub4,2,A,203,0,828,i,m,r,f,NA,NA,25%,75%
sub4,2,A,204,1,907,i,m,r,f,NA,NA,25%,75%
sub4,2,A,205,1,815,i,p,s,s,1,1,25%,75%
sub4,2,A,206,1,788,c,p,r,s,1,2,25%,75%
sub4,2,A,207,0,770,i,m,s,s,1,3,25%,75%
sub4,2,A,208,1,1021,c,m,r,s,1,4,25%,75%
sub4,2,A,209,1,762,c,p,s,f,NA,NA,25%,75%
sub4,2,A,210,1,992,i,p,r,f,NA,NA,25%,75%
sub4,2,A,211,1,1159,i,p,r,f,NA,NA,25%,75%
sub4,2,A,212,1,808,i,p,r,f,NA,NA,25%,75%
sub4,2,A,213,1,806,i,p,r,f,NA,NA,25%,75%
sub4,2,A,214,1,841,i,p,r,f,NA,NA,25%,75%
sub4,2,A,215,1,939,c,p,r,s,2,1,25%,75%
sub4,2,A,216,1,1066,c,p,r,s,2,2,25%,75%
sub4,2,A,217,1,892,i,m,s,s,2,3,25%,75%
sub4,2,A,218,1,1162,i,p,s,s,2,4,25%,75%
sub4,2,A,219,1,1366,i,p,r,f,NA,NA,25%,75%
sub4,2,A,220,1,949,i,p,r,f,NA,NA,25%,75%
sub4,2,A,221,1,836,i,p,r,f,NA,NA,25%,75%
sub4,2,A,222,1,916,i,p,r,f,NA,NA,25%,75%
sub4,2,A,223,1,862,i,p,r,f,NA,NA,25%,75%
sub4,2,A,224,1,885,c,p,r,s,2,1,25%,75%
sub4,2,A,225,1,951,c,p,r,s,2,2,25%,75%
sub4,2,A,226,0,934,i,m,s,s,2,3,25%,75%
sub4,2,A,227,1,1024,i,p,s,s,2,4,25%,75%
sub4,2,A,228,1,1030,c,m,s,f,NA,NA,25%,75%
sub4,2,A,229,1,900,i,m,r,f,NA,NA,25%,75%
sub4,2,A,230,1,943,i,m,r,f,NA,NA,25%,75%
sub4,2,A,231,1,929,i,m,r,f,NA,NA,25%,75%
sub4,2,A,232,1,962,i,m,r,f,NA,NA,25%,75%
sub4,2,A,233,1,967,i,m,r,f,NA,NA,25%,75%
sub4,2,A,234,1,875,i,m,r,s,3,1,25%,75%
sub4,2,A,235,1,1276,c,p,s,s,3,2,25%,75%
sub4,2,A,236,1,1237,i,p,r,s,3,3,25%,75%
sub4,2,A,237,1,1506,c,m,s,s,3,4,25%,75%
sub4,2,A,238,1,820,i,m,r,f,NA,NA,25%,75%
sub4,2,A,239,1,988,i,m,r,f,NA,NA,25%,75%
sub4,2,A,240,1,984,i,m,r,f,NA,NA,25%,75%
sub4,2,A,241,1,836,i,m,r,f,NA,NA,25%,75%
sub4,2,A,242,1,900,i,m,r,f,NA,NA,25%,75%
sub4,2,A,243,0,NA,i,m,r,f,NA,NA,25%,75%
sub4,2,A,244,1,1265,i,p,s,s,1,1,25%,75%
sub4,2,A,245,1,784,c,p,r,s,1,2,25%,75%
sub4,2,A,246,1,1223,i,m,s,s,1,3,25%,75%
sub4,2,A,247,1,1305,c,m,r,s,1,4,25%,75%
sub4,2,A,248,1,795,c,p,s,f,NA,NA,25%,75%
sub4,2,A,249,1,857,i,p,r,f,NA,NA,25%,75%
sub4,2,A,250,1,1004,i,p,r,f,NA,NA,25%,75%
sub4,2,A,251,1,888,i,p,r,f,NA,NA,25%,75%
sub4,2,A,252,1,843,i,p,r,f,NA,NA,25%,75%
sub4,2,A,253,1,1398,c,m,s,s,4,1,25%,75%
sub4,2,A,254,1,1333,c,p,s,s,4,2,25%,75%
sub4,2,A,255,1,920,i,p,r,s,4,3,25%,75%
sub4,2,A,256,1,859,i,p,r,s,4,4,25%,75%
sub4,2,A,257,1,916,i,p,r,f,NA,NA,25%,75%
sub4,2,A,258,1,739,i,p,r,f,NA,NA,25%,75%
sub4,2,A,259,1,1173,i,p,r,f,NA,NA,25%,75%
sub4,2,A,260,1,806,i,p,r,f,NA,NA,25%,75%
sub4,2,A,261,1,865,i,p,r,f,NA,NA,25%,75%
sub4,2,A,262,1,869,i,p,r,f,NA,NA,25%,75%
sub4,2,A,263,1,1008,c,p,r,s,2,1,25%,75%
sub4,2,A,264,1,925,c,p,r,s,2,2,25%,75%
sub4,2,A,265,1,1000,i,m,s,s,2,3,25%,75%
sub4,2,A,266,1,975,i,p,s,s,2,4,25%,75%
sub4,2,A,267,1,858,i,p,r,f,NA,NA,25%,75%
sub4,2,A,268,1,809,i,p,r,f,NA,NA,25%,75%
sub4,2,A,269,1,849,i,p,r,f,NA,NA,25%,75%
sub4,2,A,270,1,857,i,p,r,f,NA,NA,25%,75%
sub4,2,A,271,1,880,i,p,r,f,NA,NA,25%,75%
sub4,2,A,272,1,984,i,p,r,f,NA,NA,25%,75%
sub4,2,A,273,0,1287,i,m,s,s,1,1,25%,75%
sub4,2,A,274,1,914,c,m,r,s,1,2,25%,75%
sub4,2,A,275,1,1095,i,p,s,s,1,3,25%,75%
sub4,2,A,276,1,1174,c,p,r,s,1,4,25%,75%
sub4,2,A,277,1,893,c,m,s,f,NA,NA,25%,75%
sub4,2,A,278,1,853,i,m,r,f,NA,NA,25%,75%
sub4,2,A,279,1,1061,i,m,r,f,NA,NA,25%,75%
sub4,2,A,280,1,873,i,m,r,f,NA,NA,25%,75%
sub4,2,A,281,1,908,i,m,r,f,NA,NA,25%,75%
sub4,2,A,282,1,953,c,p,s,s,4,1,25%,75%
sub4,2,A,283,1,843,c,m,s,s,4,2,25%,75%
sub4,2,A,284,1,959,i,m,r,s,4,3,25%,75%
sub4,2,A,285,1,1097,i,m,r,s,4,4,25%,75%
sub4,2,A,286,1,808,i,m,r,f,NA,NA,25%,75%
sub4,2,A,287,0,876,i,m,r,f,NA,NA,25%,75%
sub4,2,A,288,1,741,i,m,r,f,NA,NA,25%,75%
sub4,2,A,289,1,839,i,m,r,f,NA,NA,25%,75%
sub4,2,A,290,1,848,i,m,r,f,NA,NA,25%,75%
sub4,2,A,291,1,1192,c,p,s,s,4,1,25%,75%
sub4,2,A,292,1,1175,c,m,s,s,4,2,25%,75%
sub4,2,A,293,1,1436,i,m,r,s,4,3,25%,75%
sub4,2,A,294,1,738,i,m,r,s,4,4,25%,75%
sub4,2,A,295,1,807,i,m,r,f,NA,NA,25%,75%
sub4,2,A,296,1,1061,i,m,r,f,NA,NA,25%,75%
sub4,2,A,297,1,969,i,m,r,f,NA,NA,25%,75%
sub4,2,A,298,1,1082,i,m,r,f,NA,NA,25%,75%
sub4,2,A,299,1,1047,i,m,r,f,NA,NA,25%,75%
sub4,2,A,300,1,907,i,m,r,f,NA,NA,25%,75%
sub4,2,A,301,1,1115,i,m,r,s,3,1,25%,75%
sub4,2,A,302,1,1255,c,p,s,s,3,2,25%,75%
sub4,2,A,303,1,1095,i,p,r,s,3,3,25%,75%
sub4,2,A,304,1,1229,c,m,s,s,3,4,25%,75%
sub4,2,A,305,1,1038,c,p,s,f,NA,NA,25%,75%
sub4,2,A,306,1,1039,i,p,r,f,NA,NA,25%,75%
sub4,2,A,307,1,1022,i,p,r,f,NA,NA,25%,75%
sub4,2,A,308,1,762,i,p,r,f,NA,NA,25%,75%
sub4,2,A,309,1,1039,i,p,r,f,NA,NA,25%,75%
sub4,2,A,310,1,797,i,p,r,f,NA,NA,25%,75%
sub4,2,A,311,1,1221,i,m,s,s,1,1,25%,75%
sub4,2,A,312,1,886,c,m,r,s,1,2,25%,75%
sub4,2,A,313,1,1101,i,p,s,s,1,3,25%,75%
sub4,2,A,314,1,1194,c,p,r,s,1,4,25%,75%
sub4,2,A,315,1,880,i,p,r,f,NA,NA,25%,75%
sub4,2,A,316,1,792,i,p,r,f,NA,NA,25%,75%
sub4,2,A,317,1,779,i,p,r,f,NA,NA,25%,75%
sub4,2,A,318,0,1259,i,p,r,f,NA,NA,25%,75%
sub4,2,A,319,1,804,i,p,r,f,NA,NA,25%,75%
sub4,2,A,320,1,844,i,p,r,f,NA,NA,25%,75%
sub4,3,C,322,1,983,c,m,r,f,NA,NA,25%,25%
sub4,3,C,323,1,892,c,m,r,f,NA,NA,25%,25%
sub4,3,C,324,1,824,c,m,r,f,NA,NA,25%,25%
sub4,3,C,325,1,927,c,m,r,f,NA,NA,25%,25%
sub4,3,C,326,1,1059,c,p,s,s,4,1,25%,25%
sub4,3,C,327,1,777,c,m,s,s,4,2,25%,25%
sub4,3,C,328,1,1070,i,m,r,s,4,3,25%,25%
sub4,3,C,329,1,1113,i,m,r,s,4,4,25%,25%
sub4,3,C,330,1,875,c,m,r,f,NA,NA,25%,25%
sub4,3,C,331,1,790,c,m,r,f,NA,NA,25%,25%
sub4,3,C,332,1,921,c,m,r,f,NA,NA,25%,25%
sub4,3,C,333,1,859,c,m,r,f,NA,NA,25%,25%
sub4,3,C,334,1,816,c,m,r,f,NA,NA,25%,25%
sub4,3,C,335,1,863,c,m,r,f,NA,NA,25%,25%
sub4,3,C,336,1,872,i,m,r,s,3,1,25%,25%
sub4,3,C,337,1,1218,c,p,s,s,3,2,25%,25%
sub4,3,C,338,1,868,i,p,r,s,3,3,25%,25%
sub4,3,C,339,1,963,c,m,s,s,3,4,25%,25%
sub4,3,C,340,1,865,c,m,r,f,NA,NA,25%,25%
sub4,3,C,341,1,930,c,m,r,f,NA,NA,25%,25%
sub4,3,C,342,1,938,c,m,r,f,NA,NA,25%,25%
sub4,3,C,343,1,802,c,m,r,f,NA,NA,25%,25%
sub4,3,C,344,1,824,c,m,r,f,NA,NA,25%,25%
sub4,3,C,345,1,806,c,m,r,f,NA,NA,25%,25%
sub4,3,C,346,1,1274,i,m,r,s,3,1,25%,25%
sub4,3,C,347,1,1252,c,p,s,s,3,2,25%,25%
sub4,3,C,348,1,979,i,p,r,s,3,3,25%,25%
sub4,3,C,349,1,989,c,m,s,s,3,4,25%,25%
sub4,3,C,350,1,970,i,p,s,f,NA,NA,25%,25%
sub4,3,C,351,1,1488,c,p,r,f,NA,NA,25%,25%
sub4,3,C,352,1,843,c,p,r,f,NA,NA,25%,25%
sub4,3,C,353,1,843,c,p,r,f,NA,NA,25%,25%
sub4,3,C,354,1,918,c,p,r,f,NA,NA,25%,25%
sub4,3,C,355,1,763,c,p,r,f,NA,NA,25%,25%
sub4,3,C,356,1,998,c,p,r,s,2,1,25%,25%
sub4,3,C,357,1,776,c,p,r,s,2,2,25%,25%
sub4,3,C,358,1,1158,i,m,s,s,2,3,25%,25%
sub4,3,C,359,1,981,i,p,s,s,2,4,25%,25%
sub4,3,C,360,1,806,i,m,s,f,NA,NA,25%,25%
sub4,3,C,361,1,826,c,m,r,f,NA,NA,25%,25%
sub4,3,C,362,1,825,c,m,r,f,NA,NA,25%,25%
sub4,3,C,363,1,813,c,m,r,f,NA,NA,25%,25%
sub4,3,C,364,1,828,c,m,r,f,NA,NA,25%,25%
sub4,3,C,365,1,1201,c,m,r,f,NA,NA,25%,25%
sub4,3,C,366,1,870,i,p,s,s,1,1,25%,25%
sub4,3,C,367,1,1136,c,p,r,s,1,2,25%,25%
sub4,3,C,368,1,1094,i,m,s,s,1,3,25%,25%
sub4,3,C,369,1,944,c,m,r,s,1,4,25%,25%
sub4,3,C,370,1,1136,c,m,r,f,NA,NA,25%,25%
sub4,3,C,371,1,983,c,m,r,f,NA,NA,25%,25%
sub4,3,C,372,0,1268,c,m,r,f,NA,NA,25%,25%
sub4,3,C,373,1,923,c,m,r,f,NA,NA,25%,25%
sub4,3,C,374,1,923,c,m,r,f,NA,NA,25%,25%
sub4,3,C,375,1,848,c,m,r,f,NA,NA,25%,25%
sub4,3,C,376,1,895,c,m,r,s,2,1,25%,25%
sub4,3,C,377,1,966,c,m,r,s,2,2,25%,25%
sub4,3,C,378,1,1025,i,p,s,s,2,3,25%,25%
sub4,3,C,379,1,1202,i,m,s,s,2,4,25%,25%
sub4,3,C,380,1,1165,c,m,r,f,NA,NA,25%,25%
sub4,3,C,381,1,967,c,m,r,f,NA,NA,25%,25%
sub4,3,C,382,1,1325,c,m,r,f,NA,NA,25%,25%
sub4,3,C,383,1,1118,c,m,r,f,NA,NA,25%,25%
sub4,3,C,384,1,822,c,m,r,f,NA,NA,25%,25%
sub4,3,C,385,1,756,c,m,r,f,NA,NA,25%,25%
sub4,3,C,386,1,991,c,m,r,s,2,1,25%,25%
sub4,3,C,387,1,1025,c,m,r,s,2,2,25%,25%
sub4,3,C,388,1,1018,i,p,s,s,2,3,25%,25%
sub4,3,C,389,1,1280,i,m,s,s,2,4,25%,25%
sub4,3,C,390,1,985,c,m,r,f,NA,NA,25%,25%
sub4,3,C,391,1,1050,c,m,r,f,NA,NA,25%,25%
sub4,3,C,392,1,947,c,m,r,f,NA,NA,25%,25%
sub4,3,C,393,1,867,c,m,r,f,NA,NA,25%,25%
sub4,3,C,394,1,1296,c,m,r,f,NA,NA,25%,25%
sub4,3,C,395,1,922,c,m,r,f,NA,NA,25%,25%
sub4,3,C,396,1,833,i,m,r,s,3,1,25%,25%
sub4,3,C,397,1,1123,c,p,s,s,3,2,25%,25%
sub4,3,C,398,1,1098,i,p,r,s,3,3,25%,25%
sub4,3,C,399,1,1400,c,m,s,s,3,4,25%,25%
sub4,3,C,400,1,893,c,m,r,f,NA,NA,25%,25%
sub4,3,C,401,0,1170,c,m,r,f,NA,NA,25%,25%
sub4,3,C,402,1,916,c,m,r,f,NA,NA,25%,25%
sub4,3,C,403,1,843,c,m,r,f,NA,NA,25%,25%
sub4,3,C,404,1,876,c,m,r,f,NA,NA,25%,25%
sub4,3,C,405,1,1135,c,m,r,f,NA,NA,25%,25%
sub4,3,C,406,1,989,i,p,s,s,1,1,25%,25%
sub4,3,C,407,1,1393,c,p,r,s,1,2,25%,25%
sub4,3,C,408,1,1064,i,m,s,s,1,3,25%,25%
sub4,3,C,409,1,1115,c,m,r,s,1,4,25%,25%
sub4,3,C,410,1,993,c,m,r,f,NA,NA,25%,25%
sub4,3,C,411,1,993,c,m,r,f,NA,NA,25%,25%
sub4,3,C,412,1,1002,c,m,r,f,NA,NA,25%,25%
sub4,3,C,413,1,955,c,m,r,f,NA,NA,25%,25%
sub4,3,C,414,1,972,c,m,r,f,NA,NA,25%,25%
sub4,3,C,415,1,997,c,m,r,f,NA,NA,25%,25%
sub4,3,C,416,1,1054,c,p,s,s,4,1,25%,25%
sub4,3,C,417,1,960,c,m,s,s,4,2,25%,25%
sub4,3,C,418,0,1097,i,m,r,s,4,3,25%,25%
sub4,3,C,419,1,984,i,m,r,s,4,4,25%,25%
sub4,3,C,420,1,965,i,p,s,f,NA,NA,25%,25%
sub4,3,C,421,1,860,c,p,r,f,NA,NA,25%,25%
sub4,3,C,422,1,933,c,p,r,f,NA,NA,25%,25%
sub4,3,C,423,1,889,c,p,r,f,NA,NA,25%,25%
sub4,3,C,424,1,1159,c,p,r,f,NA,NA,25%,25%
sub4,3,C,425,1,807,c,p,r,f,NA,NA,25%,25%
sub4,3,C,426,1,820,c,p,r,s,2,1,25%,25%
sub4,3,C,427,1,805,c,p,r,s,2,2,25%,25%
sub4,3,C,428,1,1112,i,m,s,s,2,3,25%,25%
sub4,3,C,429,1,1048,i,p,s,s,2,4,25%,25%
sub4,3,C,430,0,866,i,m,s,f,NA,NA,25%,25%
sub4,3,C,431,1,726,c,m,r,f,NA,NA,25%,25%
sub4,3,C,432,1,839,c,m,r,f,NA,NA,25%,25%
sub4,3,C,433,1,837,c,m,r,f,NA,NA,25%,25%
sub4,3,C,434,1,1043,i,p,s,s,1,1,25%,25%
sub4,3,C,435,1,972,c,p,r,s,1,2,25%,25%
sub4,3,C,436,1,808,i,m,s,s,1,3,25%,25%
sub4,3,C,437,1,726,c,m,r,s,1,4,25%,25%
sub4,3,C,438,1,1077,i,p,s,f,NA,NA,25%,25%
sub4,3,C,439,1,858,c,p,r,f,NA,NA,25%,25%
sub4,3,C,440,1,1023,c,p,r,f,NA,NA,25%,25%
sub4,3,C,441,1,718,c,p,r,f,NA,NA,25%,25%
sub4,3,C,442,1,878,c,p,r,f,NA,NA,25%,25%
sub4,3,C,443,1,850,c,m,s,s,4,1,25%,25%
sub4,3,C,444,1,891,c,p,s,s,4,2,25%,25%
sub4,3,C,445,1,896,i,p,r,s,4,3,25%,25%
sub4,3,C,446,1,1142,i,p,r,s,4,4,25%,25%
sub4,3,C,447,0,885,i,m,s,f,NA,NA,25%,25%
sub4,3,C,448,1,895,c,m,r,f,NA,NA,25%,25%
sub4,3,C,449,1,858,c,m,r,f,NA,NA,25%,25%
sub4,3,C,450,1,800,c,m,r,f,NA,NA,25%,25%
sub4,3,C,451,1,899,c,m,r,f,NA,NA,25%,25%
sub4,3,C,452,1,923,c,m,r,f,NA,NA,25%,25%
sub4,3,C,453,1,922,c,p,s,s,4,1,25%,25%
sub4,3,C,454,1,963,c,m,s,s,4,2,25%,25%
sub4,3,C,455,1,903,i,m,r,s,4,3,25%,25%
sub4,3,C,456,1,925,i,m,r,s,4,4,25%,25%
sub4,3,C,457,1,1026,i,p,s,f,NA,NA,25%,25%
sub4,3,C,458,1,856,c,p,r,f,NA,NA,25%,25%
sub4,3,C,459,1,1147,c,p,r,f,NA,NA,25%,25%
sub4,3,C,460,1,874,c,p,r,f,NA,NA,25%,25%
sub4,3,C,461,1,1088,c,p,r,f,NA,NA,25%,25%
sub4,3,C,462,1,843,c,p,r,f,NA,NA,25%,25%
sub4,3,C,463,1,943,i,p,r,s,3,1,25%,25%
sub4,3,C,464,1,1148,c,m,s,s,3,2,25%,25%
sub4,3,C,465,1,1304,i,m,r,s,3,3,25%,25%
sub4,3,C,466,1,1006,c,p,s,s,3,4,25%,25%
sub4,3,C,467,1,1303,c,p,r,f,NA,NA,25%,25%
sub4,3,C,468,1,908,c,p,r,f,NA,NA,25%,25%
sub4,3,C,469,1,848,c,p,r,f,NA,NA,25%,25%
sub4,3,C,470,1,799,c,p,r,f,NA,NA,25%,25%
sub4,3,C,471,1,908,c,p,r,f,NA,NA,25%,25%
sub4,3,C,472,1,836,c,p,r,f,NA,NA,25%,25%
sub4,3,C,473,0,1133,i,m,s,s,1,1,25%,25%
sub4,3,C,474,1,746,c,m,r,s,1,2,25%,25%
sub4,3,C,475,1,820,i,p,s,s,1,3,25%,25%
sub4,3,C,476,1,925,c,p,r,s,1,4,25%,25%
sub4,3,C,477,0,999,i,m,s,f,NA,NA,25%,25%
sub4,3,C,478,1,858,c,m,r,f,NA,NA,25%,25%
sub4,3,C,479,1,909,c,m,r,f,NA,NA,25%,25%
sub4,3,C,480,1,774,c,m,r,f,NA,NA,25%,25%
sub4,4,B,482,1,1349,i,m,s,f,NA,NA,75%,75%
sub4,4,B,483,1,856,i,p,s,f,NA,NA,75%,75%
sub4,4,B,484,1,897,i,m,s,f,NA,NA,75%,75%
sub4,4,B,485,1,929,i,p,s,f,NA,NA,75%,75%
sub4,4,B,486,1,880,c,m,s,s,4,1,75%,75%
sub4,4,B,487,1,1004,c,p,s,s,4,2,75%,75%
sub4,4,B,488,1,1128,i,p,r,s,4,3,75%,75%
sub4,4,B,489,0,1169,i,p,r,s,4,4,75%,75%
sub4,4,B,490,1,930,i,m,s,f,NA,NA,75%,75%
sub4,4,B,491,1,1089,i,p,s,f,NA,NA,75%,75%
sub4,4,B,492,1,1249,i,m,s,f,NA,NA,75%,75%
sub4,4,B,493,1,1060,i,p,s,f,NA,NA,75%,75%
sub4,4,B,494,1,1110,i,m,s,f,NA,NA,75%,75%
sub4,4,B,495,1,1073,i,p,s,f,NA,NA,75%,75%
sub4,4,B,496,1,1109,i,p,r,s,3,1,75%,75%
sub4,4,B,497,1,1009,c,m,s,s,3,2,75%,75%
sub4,4,B,498,1,799,i,m,r,s,3,3,75%,75%
sub4,4,B,499,1,883,c,p,s,s,3,4,75%,75%
sub4,4,B,500,1,1004,c,p,r,f,NA,NA,75%,75%
sub4,4,B,501,1,941,i,m,s,f,NA,NA,75%,75%
sub4,4,B,502,1,894,i,p,s,f,NA,NA,75%,75%
sub4,4,B,503,1,1161,i,m,s,f,NA,NA,75%,75%
sub4,4,B,504,1,1120,i,p,s,f,NA,NA,75%,75%
sub4,4,B,505,1,1013,i,m,s,f,NA,NA,75%,75%
sub4,4,B,506,1,947,i,m,r,s,3,1,75%,75%
sub4,4,B,507,1,846,c,p,s,s,3,2,75%,75%
sub4,4,B,508,0,1176,i,p,r,s,3,3,75%,75%
sub4,4,B,509,1,809,c,m,s,s,3,4,75%,75%
sub4,4,B,510,1,801,c,m,r,f,NA,NA,75%,75%
sub4,4,B,511,1,1025,i,p,s,f,NA,NA,75%,75%
sub4,4,B,512,1,874,i,m,s,f,NA,NA,75%,75%
sub4,4,B,513,1,1089,i,p,s,f,NA,NA,75%,75%
sub4,4,B,514,1,819,c,p,r,s,2,1,75%,75%
sub4,4,B,515,1,1018,c,p,r,s,2,2,75%,75%
sub4,4,B,516,1,1074,i,m,s,s,2,3,75%,75%
sub4,4,B,517,1,956,i,p,s,s,2,4,75%,75%
sub4,4,B,518,1,935,c,p,r,f,NA,NA,75%,75%
sub4,4,B,519,1,929,i,m,s,f,NA,NA,75%,75%
sub4,4,B,520,1,1152,i,p,s,f,NA,NA,75%,75%
sub4,4,B,521,1,903,i,m,s,f,NA,NA,75%,75%
sub4,4,B,522,1,1091,i,p,s,f,NA,NA,75%,75%
sub4,4,B,523,1,1035,i,m,s,s,1,1,75%,75%
sub4,4,B,524,1,803,c,m,r,s,1,2,75%,75%
sub4,4,B,525,1,1012,i,p,s,s,1,3,75%,75%
sub4,4,B,526,1,1300,c,p,r,s,1,4,75%,75%
sub4,4,B,527,1,764,c,p,r,f,NA,NA,75%,75%
sub4,4,B,528,1,783,i,m,s,f,NA,NA,75%,75%
sub4,4,B,529,1,1173,i,p,s,f,NA,NA,75%,75%
sub4,4,B,530,1,1255,i,m,s,f,NA,NA,75%,75%
sub4,4,B,531,1,1408,i,p,s,f,NA,NA,75%,75%
sub4,4,B,532,1,1165,i,m,s,f,NA,NA,75%,75%
sub4,4,B,533,1,851,c,m,r,s,2,1,75%,75%
sub4,4,B,534,1,737,c,m,r,s,2,2,75%,75%
sub4,4,B,535,1,863,i,p,s,s,2,3,75%,75%
sub4,4,B,536,1,1183,i,m,s,s,2,4,75%,75%
sub4,4,B,537,1,1243,i,p,s,f,NA,NA,75%,75%
sub4,4,B,538,1,1037,i,m,s,f,NA,NA,75%,75%
sub4,4,B,539,1,1056,i,p,s,f,NA,NA,75%,75%
sub4,4,B,540,1,1029,i,m,s,f,NA,NA,75%,75%
sub4,4,B,541,1,1063,i,p,s,f,NA,NA,75%,75%
sub4,4,B,542,1,939,c,p,r,s,2,1,75%,75%
sub4,4,B,543,1,1078,c,p,r,s,2,2,75%,75%
sub4,4,B,544,1,1119,i,m,s,s,2,3,75%,75%
sub4,4,B,545,1,1020,i,p,s,s,2,4,75%,75%
sub4,4,B,546,1,907,i,m,s,f,NA,NA,75%,75%
sub4,4,B,547,1,1079,i,p,s,f,NA,NA,75%,75%
sub4,4,B,548,1,1123,i,m,s,f,NA,NA,75%,75%
sub4,4,B,549,1,1020,i,p,s,f,NA,NA,75%,75%
sub4,4,B,550,1,1097,i,m,s,f,NA,NA,75%,75%
sub4,4,B,551,1,866,i,p,s,f,NA,NA,75%,75%
sub4,4,B,552,0,1227,i,p,r,s,3,1,75%,75%
sub4,4,B,553,1,874,c,m,s,s,3,2,75%,75%
sub4,4,B,554,1,778,i,m,r,s,3,3,75%,75%
sub4,4,B,555,1,930,c,p,s,s,3,4,75%,75%
sub4,4,B,556,1,1028,c,p,r,f,NA,NA,75%,75%
sub4,4,B,557,1,1100,i,m,s,f,NA,NA,75%,75%
sub4,4,B,558,1,884,i,p,s,f,NA,NA,75%,75%
sub4,4,B,559,1,873,i,m,s,f,NA,NA,75%,75%
sub4,4,B,560,1,966,i,p,s,f,NA,NA,75%,75%
sub4,4,B,561,1,1171,i,m,s,f,NA,NA,75%,75%
sub4,4,B,562,1,1100,i,p,s,s,1,1,75%,75%
sub4,4,B,563,1,851,c,p,r,s,1,2,75%,75%
