subject,block,blockType,trialCount,acc,RT,congruency,cuedTask,taskSequence,sequenceType,sequenceKind,sequencePosition,switchProp,incongruentProp
sub1,1,A,7,1,823,c,m,s,s,4,2,25%,75%
sub1,1,A,8,1,834,i,m,r,s,4,3,25%,75%
sub1,1,A,9,1,1059,i,m,r,s,4,4,25%,75%
sub1,1,A,16,1,1223,c,m,s,s,3,2,25%,75%
sub1,1,A,17,1,1062,i,m,r,s,3,3,25%,75%
sub1,1,A,18,0,1046,c,p,s,s,3,4,25%,75%
sub1,1,A,24,1,1106,c,p,r,s,1,2,25%,75%
sub1,1,A,25,1,1058,i,m,s,s,1,3,25%,75%
sub1,1,A,26,1,1193,c,m,r,s,1,4,25%,75%
sub1,1,A,34,1,1030,c,m,r,s,2,2,25%,75%
sub1,1,A,35,1,1204,i,p,s,s,2,3,25%,75%
sub1,1,A,36,1,1106,i,m,s,s,2,4,25%,75%
sub1,1,A,44,1,892,c,m,r,s,1,2,25%,75%
sub1,1,A,45,1,1220,i,p,s,s,1,3,25%,75%
sub1,1,A,46,1,1472,c,p,r,s,1,4,25%,75%
sub1,1,A,54,1,1124,c,p,s,s,4,2,25%,75%
sub1,1,A,55,1,998,i,p,r,s,4,3,25%,75%
sub1,1,A,56,1,1013,i,p,r,s,4,4,25%,75%
sub1,1,A,64,1,1102,c,p,r,s,1,2,25%,75%
sub1,1,A,65,1,990,i,m,s,s,1,3,25%,75%
sub1,1,A,66,1,1077,c,m,r,s,1,4,25%,75%
sub1,1,A,74,1,1094,c,p,r,s,2,2,25%,75%
sub1,1,A,75,1,1052,i,m,s,s,2,3,25%,75%
sub1,1,A,76,1,1256,i,p,s,s,2,4,25%,75%
sub1,1,A,84,1,1037,c,p,r,s,2,2,25%,75%
sub1,1,A,85,1,980,i,m,s,s,2,3,25%,75%
sub1,1,A,86,0,1121,i,p,s,s,2,4,25%,75%
sub1,1,A,94,1,940,c,m,s,s,4,2,25%,75%
sub1,1,A,95,1,1262,i,m,r,s,4,3,25%,75%
sub1,1,A,96,1,1109,i,m,r,s,4,4,25%,75%
sub1,1,A,104,1,1378,c,m,r,s,1,2,25%,75%
sub1,1,A,105,0,908,i,p,s,s,1,3,25%,75%
sub1,1,A,106,1,910,c,p,r,s,1,4,25%,75%
sub1,1,A,114,1,1067,c,p,s,s,4,2,25%,75%
sub1,1,A,115,1,1032,i,p,r,s,4,3,25%,75%
sub1,1,A,116,1,913,i,p,r,s,4,4,25%,75%
sub1,1,A,124,0,1132,c,m,s,s,3,2,25%,75%
sub1,1,A,125,1,1450,i,m,r,s,3,3,25%,75%
sub1,1,A,126,0,NA,c,p,s,s,3,4,25%,75%
sub1,1,A,134,1,990,c,m,r,s,2,2,25%,75%
sub1,1,A,135,1,1292,i,p,s,s,2,3,25%,75%
sub1,1,A,136,1,887,i,m,s,s,2,4,25%,75%
sub1,1,A,144,1,1047,c,p,s,s,3,2,25%,75%
sub1,1,A,145,1,1160,i,p,r,s,3,3,25%,75%
sub1,1,A,146,1,914,c,m,s,s,3,4,25%,75%
sub1,1,A,153,1,1201,c,p,s,s,3,2,25%,75%
sub1,1,A,154,1,1192,i,p,r,s,3,3,25%,75%
sub1,1,A,155,1,852,c,m,s,s,3,4,25%,75%
sub1,2,B,167,1,963,c,p,s,s,4,2,75%,75%
sub1,2,B,168,1,921,i,p,r,s,4,3,75%,75%
sub1,2,B,169,1,760,i,p,r,s,4,4,75%,75%
sub1,2,B,177,1,824,c,p,s,s,3,2,75%,75%
sub1,2,B,178,0,809,i,p,r,s,3,3,75%,75%
sub1,2,B,179,1,1121,c,m,s,s,3,4,75%,75%
sub1,2,B,186,0,1248,c,m,r,s,1,2,75%,75%
sub1,2,B,187,1,859,i,p,s,s,1,3,75%,75%
sub1,2,B,188,1,940,c,p,r,s,1,4,75%,75%
sub1,2,B,196,1,889,c,p,r,s,2,2,75%,75%
sub1,2,B,197,1,1159,i,m,s,s,2,3,75%,75%
sub1,2,B,198,0,905,i,p,s,s,2,4,75%,75%
sub1,2,B,206,1,1010,c,m,r,s,1,2,75%,75%
sub1,2,B,207,0,961,i,p,s,s,1,3,75%,75%
sub1,2,B,208,1,973,c,p,r,s,1,4,75%,75%
sub1,2,B,216,1,1014,c,p,s,s,4,2,75%,75%
sub1,2,B,217,1,835,i,p,r,s,4,3,75%,75%
sub1,2,B,218,1,1004,i,p,r,s,4,4,75%,75%
sub1,2,B,226,1,1011,c,m,r,s,1,2,75%,75%
sub1,2,B,227,1,964,i,p,s,s,1,3,75%,75%
sub1,2,B,228,1,1277,c,p,r,s,1,4,75%,75%
sub1,2,B,236,1,877,c,m,r,s,2,2,75%,75%
sub1,2,B,237,1,1042,i,p,s,s,2,3,75%,75%
sub1,2,B,238,1,1092,i,m,s,s,2,4,75%,75%
sub1,2,B,245,1,1050,c,m,r,s,2,2,75%,75%
sub1,2,B,246,1,1187,i,p,s,s,2,3,75%,75%
sub1,2,B,247,1,990,i,m,s,s,2,4,75%,75%
sub1,2,B,255,1,914,c,p,s,s,4,2,75%,75%
sub1,2,B,256,1,1097,i,p,r,s,4,3,75%,75%
sub1,2,B,257,1,1045,i,p,r,s,4,4,75%,75%
sub1,2,B,264,1,882,c,p,r,s,1,2,75%,75%
sub1,2,B,265,1,937,i,m,s,s,1,3,75%,75%
sub1,2,B,266,1,940,c,m,r,s,1,4,75%,75%
sub1,2,B,273,1,1219,c,m,s,s,4,2,75%,75%
sub1,2,B,274,1,967,i,m,r,s,4,3,75%,75%
sub1,2,B,275,1,874,i,m,r,s,4,4,75%,75%
sub1,2,B,283,1,1008,c,m,s,s,3,2,75%,75%
sub1,2,B,284,1,1062,i,m,r,s,3,3,75%,75%
sub1,2,B,285,1,1108,c,p,s,s,3,4,75%,75%
sub1,2,B,293,1,856,c,p,r,s,2,2,75%,75%
sub1,2,B,294,1,986,i,m,s,s,2,3,75%,75%
sub1,2,B,295,0,877,i,p,s,s,2,4,75%,75%
sub1,2,B,303,1,906,c,p,s,s,3,2,75%,75%
sub1,2,B,304,1,1214,i,p,r,s,3,3,75%,75%
sub1,2,B,305,1,1073,c,m,s,s,3,4,75%,75%
sub1,2,B,312,1,1001,c,p,s,s,3,2,75%,75%
sub1,2,B,313,1,1024,i,p,r,s,3,3,75%,75%
sub1,2,B,314,1,951,c,m,s,s,3,4,75%,75%
sub1,3,D,327,1,1039,c,p,s,s,4,2,75%,25%
sub1,3,D,328,1,1111,i,p,r,s,4,3,75%,25%
sub1,3,D,329,1,822,i,p,r,s,4,4,75%,25%
sub1,3,D,336,1,999,c,m,s,s,3,2,75%,25%
sub1,3,D,337,1,973,i,m,r,s,3,3,75%,25%
sub1,3,D,338,1,1142,c,p,s,s,3,4,75%,25%
sub1,3,D,345,1,936,c,p,r,s,1,2,75%,25%
sub1,3,D,346,1,1186,i,m,s,s,1,3,75%,25%
sub1,3,D,347,1,896,c,m,r,s,1,4,75%,25%
sub1,3,D,355,1,985,c,p,r,s,2,2,75%,25%
sub1,3,D,356,1,1350,i,m,s,s,2,3,75%,25%
sub1,3,D,357,1,1016,i,p,s,s,2,4,75%,25%
sub1,3,D,365,1,1035,c,m,r,s,1,2,75%,25%
sub1,3,D,366,1,1172,i,p,s,s,1,3,75%,25%
sub1,3,D,367,1,1025,c,p,r,s,1,4,75%,25%
sub1,3,D,375,1,1053,c,p,s,s,4,2,75%,25%
sub1,3,D,376,1,1035,i,p,r,s,4,3,75%,25%
sub1,3,D,377,1,1092,i,p,r,s,4,4,75%,25%
sub1,3,D,385,1,1125,c,p,r,s,1,2,75%,25%
sub1,3,D,386,1,1261,i,m,s,s,1,3,75%,25%
sub1,3,D,387,1,1362,c,m,r,s,1,4,75%,25%
sub1,3,D,395,1,970,c,m,r,s,2,2,75%,25%
sub1,3,D,396,1,1186,i,p,s,s,2,3,75%,25%
sub1,3,D,397,1,1012,i,m,s,s,2,4,75%,25%
sub1,3,D,405,1,1218,c,m,r,s,2,2,75%,25%
sub1,3,D,406,1,1071,i,p,s,s,2,3,75%,25%
sub1,3,D,407,1,974,i,m,s,s,2,4,75%,25%
sub1,3,D,415,1,1142,c,p,s,s,4,2,75%,25%
sub1,3,D,416,1,1008,i,p,r,s,4,3,75%,25%
sub1,3,D,417,1,1057,i,p,r,s,4,4,75%,25%
sub1,3,D,424,1,898,c,p,r,s,1,2,75%,25%
sub1,3,D,425,0,NA,i,m,s,s,1,3,75%,25%
sub1,3,D,426,1,943,c,m,r,s,1,4,75%,25%
sub1,3,D,434,1,852,c,m,s,s,4,2,75%,25%
sub1,3,D,435,1,1004,i,m,r,s,4,3,75%,25%
sub1,3,D,436,1,1058,i,m,r,s,4,4,75%,25%
sub1,3,D,444,1,1057,c,m,s,s,3,2,75%,25%
sub1,3,D,445,1,1068,i,m,r,s,3,3,75%,25%
sub1,3,D,446,1,948,c,p,s,s,3,4,75%,25%
sub1,3,D,453,1,871,c,m,r,s,2,2,75%,25%
sub1,3,D,454,0,997,i,p,s,s,2,3,75%,25%
sub1,3,D,455,1,1024,i,m,s,s,2,4,75%,25%
sub1,3,D,463,1,1089,c,m,s,s,3,2,75%,25%
sub1,3,D,464,1,1150,i,m,r,s,3,3,75%,25%
sub1,3,D,465,1,1243,c,p,s,s,3,4,75%,25%
sub1,3,D,473,1,935,c,p,s,s,3,2,75%,25%
sub1,3,D,474,1,984,i,p,r,s,3,3,75%,25%
sub1,3,D,475,1,1100,c,m,s,s,3,4,75%,25%
sub1,4,C,487,1,1145,c,p,s,s,4,2,25%,25%
sub1,4,C,488,0,1057,i,p,r,s,4,3,25%,25%
sub1,4,C,489,1,1038,i,p,r,s,4,4,25%,25%
sub1,4,C,497,1,990,c,p,s,s,3,2,25%,25%
sub1,4,C,498,0,932,i,p,r,s,3,3,25%,25%
sub1,4,C,499,1,1092,c,m,s,s,3,4,25%,25%
sub1,4,C,506,1,956,c,p,r,s,1,2,25%,25%
sub1,4,C,507,1,1085,i,m,s,s,1,3,25%,25%
sub1,4,C,508,1,929,c,m,r,s,1,4,25%,25%
sub1,4,C,516,1,913,c,m,r,s,2,2,25%,25%
sub1,4,C,517,0,1002,i,p,s,s,2,3,25%,25%
sub1,4,C,518,1,1082,i,m,s,s,2,4,25%,25%
sub1,4,C,525,1,1409,c,p,r,s,1,2,25%,25%
sub1,4,C,526,1,969,i,m,s,s,1,3,25%,25%
sub1,4,C,527,1,1012,c,m,r,s,1,4,25%,25%
sub1,4,C,535,1,893,c,m,s,s,4,2,25%,25%
sub1,4,C,536,1,978,i,m,r,s,4,3,25%,25%
sub1,4,C,537,1,935,i,m,r,s,4,4,25%,25%
sub1,4,C,545,1,1149,c,m,r,s,1,2,25%,25%
sub1,4,C,546,1,1101,i,p,s,s,1,3,25%,25%
sub1,4,C,547,1,1016,c,p,r,s,1,4,25%,25%
sub1,4,C,555,1,1126,c,m,r,s,2,2,25%,25%
sub1,4,C,556,1,1245,i,p,s,s,2,3,25%,25%
sub1,4,C,557,1,914,i,m,s,s,2,4,25%,25%
sub1,4,C,565,1,1066,c,m,r,s,2,2,25%,25%
sub1,4,C,566,0,952,i,p,s,s,2,3,25%,25%
sub1,4,C,567,1,1015,i,m,s,s,2,4,25%,25%
sub1,4,C,575,1,1147,c,p,s,s,4,2,25%,25%
sub1,4,C,576,0,968,i,p,r,s,4,3,25%,25%
sub1,4,C,577,1,1042,i,p,r,s,4,4,25%,25%
sub1,4,C,585,1,993,c,p,r,s,1,2,25%,25%
sub1,4,C,586,1,929,i,m,s,s,1,3,25%,25%
sub1,4,C,587,1,941,c,m,r,s,1,4,25%,25%
sub1,4,C,594,1,877,c,m,s,s,4,2,25%,25%
sub1,4,C,595,1,777,i,m,r,s,4,3,25%,25%
sub1,4,C,596,1,912,i,m,r,s,4,4,25%,25%
sub1,4,C,604,1,969,c,m,s,s,3,2,25%,25%
sub1,4,C,605,0,879,i,m,r,s,3,3,25%,25%
sub1,4,C,606,1,1208,c,p,s,s,3,4,25%,25%
sub1,4,C,614,1,933,c,p,r,s,2,2,25%,25%
sub1,4,C,615,1,963,i,m,s,s,2,3,25%,25%
sub1,4,C,616,1,998,i,p,s,s,2,4,25%,25%
sub1,4,C,622,1,1162,c,p,s,s,3,2,25%,25%
sub1,4,C,623,0,1000,i,p,r,s,3,3,25%,25%
sub1,4,C,624,1,1017,c,m,s,s,3,4,25%,25%
sub1,4,C,632,1,915,c,p,s,s,3,2,25%,25%
sub1,4,C,633,1,979,i,p,r,s,3,3,25%,25%
sub1,4,C,634,1,1006,c,m,s,s,3,4,25%,25%
sub2,1,C,7,1,1018,c,p,r,s,1,2,25%,25%
sub2,1,C,8,1,1334,i,m,s,s,1,3,25%,25%
sub2,1,C,9,1,1308,c,m,r,s,1,4,25%,25%
sub2,1,C,17,1,761,c,p,r,s,1,2,25%,25%
sub2,1,C,18,0,1133,i,m,s,s,1,3,25%,25%
sub2,1,C,19,1,880,c,m,r,s,1,4,25%,25%
sub2,1,C,27,1,981,c,p,r,s,1,2,25%,25%
sub2,1,C,28,0,1118,i,m,s,s,1,3,25%,25%
sub2,1,C,29,1,934,c,m,r,s,1,4,25%,25%
sub2,1,C,36,1,1135,c,m,s,s,3,2,25%,25%
sub2,1,C,37,1,977,i,m,r,s,3,3,25%,25%
sub2,1,C,38,1,1249,c,p,s,s,3,4,25%,25%
sub2,1,C,45,1,1069,c,p,s,s,4,2,25%,25%
sub2,1,C,46,1,1174,i,p,r,s,4,3,25%,25%
sub2,1,C,47,1,1075,i,p,r,s,4,4,25%,25%
sub2,1,C,54,1,1041,c,p,s,s,3,2,25%,25%
sub2,1,C,55,1,1233,i,p,r,s,3,3,25%,25%
sub2,1,C,56,1,1119,c,m,s,s,3,4,25%,25%
sub2,1,C,64,1,947,c,p,s,s,4,2,25%,25%
sub2,1,C,65,1,1061,i,p,r,s,4,3,25%,25%
sub2,1,C,66,1,1011,i,p,r,s,4,4,25%,25%
sub2,1,C,74,1,934,c,p,r,s,2,2,25%,25%
sub2,1,C,75,1,1100,i,m,s,s,2,3,25%,25%
sub2,1,C,76,1,1109,i,p,s,s,2,4,25%,25%
sub2,1,C,84,1,1125,c,p,s,s,3,2,25%,25%
sub2,1,C,85,1,764,i,p,r,s,3,3,25%,25%
sub2,1,C,86,1,989,c,m,s,s,3,4,25%,25%
sub2,1,C,94,1,986,c,p,r,s,2,2,25%,25%
sub2,1,C,95,0,923,i,m,s,s,2,3,25%,25%
sub2,1,C,96,1,1205,i,p,s,s,2,4,25%,25%
sub2,1,C,103,1,1342,c,p,s,s,4,2,25%,25%
sub2,1,C,104,1,1331,i,p,r,s,4,3,25%,25%
sub2,1,C,105,1,1154,i,p,r,s,4,4,25%,25%
sub2,1,C,113,1,869,c,p,r,s,2,2,25%,25%
sub2,1,C,114,1,1207,i,m,s,s,2,3,25%,25%
sub2,1,C,115,1,1230,i,p,s,s,2,4,25%,25%
sub2,1,C,123,1,918,c,m,r,s,2,2,25%,25%
sub2,1,C,124,1,1318,i,p,s,s,2,3,25%,25%
sub2,1,C,125,1,1222,i,m,s,s,2,4,25%,25%
sub2,1,C,133,1,852,c,p,s,s,4,2,25%,25%
sub2,1,C,134,1,1124,i,p,r,s,4,3,25%,25%
sub2,1,C,135,1,927,i,p,r,s,4,4,25%,25%
sub2,1,C,143,1,904,c,p,r,s,1,2,25%,25%
sub2,1,C,144,1,1207,i,m,s,s,1,3,25%,25%
sub2,1,C,145,1,1002,c,m,r,s,1,4,25%,25%
sub2,1,C,152,1,1169,c,p,s,s,3,2,25%,25%
sub2,1,C,153,1,1153,i,p,r,s,3,3,25%,25%
sub2,1,C,154,1,1350,c,m,s,s,3,4,25%,25%
sub2,2,D,167,1,1142,c,m,r,s,1,2,75%,25%
sub2,2,D,168,1,1099,i,p,s,s,1,3,75%,25%
sub2,2,D,169,1,953,c,p,r,s,1,4,75%,25%
sub2,2,D,176,1,897,c,p,r,s,1,2,75%,25%
sub2,2,D,177,0,1004,i,m,s,s,1,3,75%,25%
sub2,2,D,178,1,1141,c,m,r,s,1,4,75%,25%
sub2,2,D,186,1,998,c,p,r,s,1,2,75%,25%
sub2,2,D,187,0,1202,i,m,s,s,1,3,75%,25%
sub2,2,D,188,1,942,c,m,r,s,1,4,75%,25%
sub2,2,D,196,1,1291,c,m,s,s,3,2,75%,25%
sub2,2,D,197,0,1257,i,m,r,s,3,3,75%,25%
sub2,2,D,198,1,926,c,p,s,s,3,4,75%,25%
sub2,2,D,205,1,1149,c,p,s,s,4,2,75%,25%
sub2,2,D,206,1,893,i,p,r,s,4,3,75%,25%
sub2,2,D,207,0,912,i,p,r,s,4,4,75%,25%
sub2,2,D,215,1,1224,c,p,s,s,3,2,75%,25%
sub2,2,D,216,1,1047,i,p,r,s,3,3,75%,25%
sub2,2,D,217,0,1038,c,m,s,s,3,4,75%,25%
sub2,2,D,225,1,1013,c,p,s,s,4,2,75%,25%
sub2,2,D,226,1,1212,i,p,r,s,4,3,75%,25%
sub2,2,D,227,1,1381,i,p,r,s,4,4,75%,25%
sub2,2,D,235,1,933,c,p,r,s,2,2,75%,25%
sub2,2,D,236,1,1210,i,m,s,s,2,3,75%,25%
sub2,2,D,237,1,968,i,p,s,s,2,4,75%,25%
sub2,2,D,245,1,1412,c,m,s,s,3,2,75%,25%
sub2,2,D,246,1,1210,i,m,r,s,3,3,75%,25%
sub2,2,D,247,1,1143,c,p,s,s,3,4,75%,25%
sub2,2,D,255,1,1319,c,m,r,s,2,2,75%,25%
sub2,2,D,256,1,1018,i,p,s,s,2,3,75%,25%
sub2,2,D,257,1,885,i,m,s,s,2,4,75%,25%
sub2,2,D,265,1,1231,c,p,s,s,4,2,75%,25%
sub2,2,D,266,1,1069,i,p,r,s,4,3,75%,25%
sub2,2,D,267,1,1024,i,p,r,s,4,4,75%,25%
sub2,2,D,274,1,902,c,p,r,s,2,2,75%,25%
sub2,2,D,275,1,1315,i,m,s,s,2,3,75%,25%
sub2,2,D,276,1,1230,i,p,s,s,2,4,75%,25%
sub2,2,D,284,1,1034,c,p,r,s,2,2,75%,25%
sub2,2,D,285,0,1455,i,m,s,s,2,3,75%,25%
sub2,2,D,286,1,968,i,p,s,s,2,4,75%,25%
sub2,2,D,294,1,1142,c,p,s,s,4,2,75%,25%
sub2,2,D,295,1,1131,i,p,r,s,4,3,75%,25%
sub2,2,D,296,0,932,i,p,r,s,4,4,75%,25%
sub2,2,D,302,1,1196,c,m,r,s,1,2,75%,25%
sub2,2,D,303,0,1139,i,p,s,s,1,3,75%,25%
sub2,2,D,304,1,1065,c,p,r,s,1,4,75%,25%
sub2,2,D,312,1,861,c,m,s,s,3,2,75%,25%
sub2,2,D,313,1,1196,i,m,r,s,3,3,75%,25%
sub2,2,D,314,1,1086,c,p,s,s,3,4,75%,25%
sub2,3,B,327,1,901,c,p,r,s,1,2,75%,75%
sub2,3,B,328,0,861,i,m,s,s,1,3,75%,75%
sub2,3,B,329,1,852,c,m,r,s,1,4,75%,75%
sub2,3,B,337,1,1152,c,m,r,s,1,2,75%,75%
sub2,3,B,338,0,NA,i,p,s,s,1,3,75%,75%
sub2,3,B,339,1,1153,c,p,r,s,1,4,75%,75%
sub2,3,B,347,1,1170,c,p,r,s,1,2,75%,75%
sub2,3,B,348,1,1080,i,m,s,s,1,3,75%,75%
sub2,3,B,349,1,1030,c,m,r,s,1,4,75%,75%
sub2,3,B,355,1,1247,c,p,s,s,3,2,75%,75%
sub2,3,B,356,1,1070,i,p,r,s,3,3,75%,75%
sub2,3,B,357,1,920,c,m,s,s,3,4,75%,75%
sub2,3,B,365,1,1360,c,m,s,s,4,2,75%,75%
sub2,3,B,366,1,1284,i,m,r,s,4,3,75%,75%
sub2,3,B,367,1,1133,i,m,r,s,4,4,75%,75%
sub2,3,B,374,1,1152,c,m,s,s,3,2,75%,75%
sub2,3,B,375,0,1300,i,m,r,s,3,3,75%,75%
sub2,3,B,376,1,1012,c,p,s,s,3,4,75%,75%
sub2,3,B,384,1,1012,c,p,s,s,4,2,75%,75%
sub2,3,B,385,1,952,i,p,r,s,4,3,75%,75%
sub2,3,B,386,1,928,i,p,r,s,4,4,75%,75%
sub2,3,B,394,1,855,c,p,r,s,2,2,75%,75%
sub2,3,B,395,1,1093,i,m,s,s,2,3,75%,75%
sub2,3,B,396,1,1085,i,p,s,s,2,4,75%,75%
sub2,3,B,404,1,1086,c,p,s,s,3,2,75%,75%
sub2,3,B,405,1,1064,i,p,r,s,3,3,75%,75%
sub2,3,B,406,1,1242,c,m,s,s,3,4,75%,75%
sub2,3,B,414,1,1391,c,p,r,s,2,2,75%,75%
sub2,3,B,415,1,1273,i,m,s,s,2,3,75%,75%
sub2,3,B,416,1,882,i,p,s,s,2,4,75%,75%
sub2,3,B,424,1,971,c,m,s,s,4,2,75%,75%
sub2,3,B,425,1,1206,i,m,r,s,4,3,75%,75%
sub2,3,B,426,1,1323,i,m,r,s,4,4,75%,75%
sub2,3,B,434,1,1278,c,m,r,s,2,2,75%,75%
sub2,3,B,435,1,1435,i,p,s,s,2,3,75%,75%
sub2,3,B,436,1,1429,i,m,s,s,2,4,75%,75%
sub2,3,B,444,1,1642,c,p,r,s,2,2,75%,75%
sub2,3,B,445,1,1090,i,m,s,s,2,3,75%,75%
sub2,3,B,446,1,1345,i,p,s,s,2,4,75%,75%
sub2,3,B,454,1,1135,c,m,s,s,4,2,75%,75%
sub2,3,B,455,1,1187,i,m,r,s,4,3,75%,75%
sub2,3,B,456,1,1318,i,m,r,s,4,4,75%,75%
sub2,3,B,464,1,1271,c,m,r,s,1,2,75%,75%
sub2,3,B,465,1,947,i,p,s,s,1,3,75%,75%
sub2,3,B,466,1,1123,c,p,r,s,1,4,75%,75%
sub2,3,B,474,1,1140,c,m,s,s,3,2,75%,75%
sub2,3,B,475,1,1274,i,m,r,s,3,3,75%,75%
sub2,3,B,476,1,1152,c,p,s,s,3,4,75%,75%
sub2,4,A,487,1,1078,c,p,r,s,1,2,25%,75%
sub2,4,A,488,1,1129,i,m,s,s,1,3,25%,75%
sub2,4,A,489,0,1387,c,m,r,s,1,4,25%,75%
sub2,4,A,496,1,1035,c,p,r,s,1,2,25%,75%
sub2,4,A,497,1,1199,i,m,s,s,1,3,25%,75%
sub2,4,A,498,1,1216,c,m,r,s,1,4,25%,75%
sub2,4,A,506,1,1393,c,m,r,s,1,2,25%,75%
sub2,4,A,507,1,1033,i,p,s,s,1,3,25%,75%
sub2,4,A,508,1,1099,c,p,r,s,1,4,25%,75%
sub2,4,A,516,1,1153,c,p,s,s,3,2,25%,75%
sub2,4,A,517,1,1148,i,p,r,s,3,3,25%,75%
sub2,4,A,518,1,964,c,m,s,s,3,4,25%,75%
sub2,4,A,526,1,1264,c,p,s,s,4,2,25%,75%
sub2,4,A,527,1,1036,i,p,r,s,4,3,25%,75%
sub2,4,A,528,1,1050,i,p,r,s,4,4,25%,75%
sub2,4,A,536,1,948,c,p,s,s,3,2,25%,75%
sub2,4,A,537,1,1450,i,p,r,s,3,3,25%,75%
sub2,4,A,538,1,1004,c,m,s,s,3,4,25%,75%
sub2,4,A,546,1,1277,c,m,s,s,4,2,25%,75%
sub2,4,A,547,1,1186,i,m,r,s,4,3,25%,75%
sub2,4,A,548,1,900,i,m,r,s,4,4,25%,75%
sub2,4,A,556,1,945,c,p,r,s,2,2,25%,75%
sub2,4,A,557,1,1425,i,m,s,s,2,3,25%,75%
sub2,4,A,558,1,1190,i,p,s,s,2,4,25%,75%
sub2,4,A,565,1,1350,c,m,s,s,3,2,25%,75%
sub2,4,A,566,1,1150,i,m,r,s,3,3,25%,75%
sub2,4,A,567,1,1115,c,p,s,s,3,4,25%,75%
sub2,4,A,575,1,730,c,p,r,s,2,2,25%,75%
sub2,4,A,576,1,1134,i,m,s,s,2,3,25%,75%
sub2,4,A,577,1,882,i,p,s,s,2,4,25%,75%
sub2,4,A,585,1,1291,c,m,s,s,4,2,25%,75%
sub2,4,A,586,1,1481,i,m,r,s,4,3,25%,75%
sub2,4,A,587,1,1264,i,m,r,s,4,4,25%,75%
sub2,4,A,593,1,1287,c,m,r,s,2,2,25%,75%
sub2,4,A,594,1,1269,i,p,s,s,2,3,25%,75%
sub2,4,A,595,1,1288,i,m,s,s,2,4,25%,75%
sub2,4,A,603,1,1081,c,m,r,s,2,2,25%,75%
sub2,4,A,604,1,1143,i,p,s,s,2,3,25%,75%
sub2,4,A,605,1,1103,i,m,s,s,2,4,25%,75%
sub2,4,A,612,1,1058,c,p,s,s,4,2,25%,75%
sub2,4,A,613,1,1098,i,p,r,s,4,3,25%,75%
sub2,4,A,614,1,1047,i,p,r,s,4,4,25%,75%
sub2,4,A,622,1,1510,c,m,r,s,1,2,25%,75%
sub2,4,A,623,1,944,i,p,s,s,1,3,25%,75%
sub2,4,A,624,1,992,c,p,r,s,1,4,25%,75%
sub2,4,A,632,1,1415,c,m,s,s,3,2,25%,75%
sub2,4,A,633,1,1308,i,m,r,s,3,3,25%,75%
sub2,4,A,634,1,1053,c,p,s,s,3,4,25%,75%
sub3,1,C,7,1,1392,c,p,s,s,3,2,25%,25%
sub3,1,C,8,0,1184,i,p,r,s,3,3,25%,25%
sub3,1,C,9,1,885,c,m,s,s,3,4,25%,25%
sub3,1,C,15,0,NA,c,p,s,s,4,2,25%,25%
sub3,1,C,16,1,1269,i,p,r,s,4,3,25%,25%
sub3,1,C,17,0,1186,i,p,r,s,4,4,25%,25%
sub3,1,C,25,1,878,c,m,r,s,2,2,25%,25%
sub3,1,C,26,1,1015,i,p,s,s,2,3,25%,25%
sub3,1,C,27,1,1045,i,m,s,s,2,4,25%,25%
sub3,1,C,35,1,1107,c,p,r,s,1,2,25%,25%
sub3,1,C,36,1,970,i,m,s,s,1,3,25%,25%
sub3,1,C,37,1,967,c,m,r,s,1,4,25%,25%
sub3,1,C,45,1,1017,c,p,s,s,3,2,25%,25%
sub3,1,C,46,1,762,i,p,r,s,3,3,25%,25%
sub3,1,C,47,1,1029,c,m,s,s,3,4,25%,25%
sub3,1,C,55,1,1048,c,p,r,s,2,2,25%,25%
sub3,1,C,56,1,1019,i,m,s,s,2,3,25%,25%
sub3,1,C,57,1,927,i,p,s,s,2,4,25%,25%
sub3,1,C,65,1,765,c,m,r,s,1,2,25%,25%
sub3,1,C,66,1,1078,i,p,s,s,1,3,25%,25%
sub3,1,C,67,1,797,c,p,r,s,1,4,25%,25%
sub3,1,C,74,1,835,c,p,r,s,1,2,25%,25%
sub3,1,C,75,0,1003,i,m,s,s,1,3,25%,25%
sub3,1,C,76,1,1229,c,m,r,s,1,4,25%,25%
sub3,1,C,84,1,924,c,p,s,s,4,2,25%,25%
sub3,1,C,85,0,935,i,p,r,s,4,3,25%,25%
sub3,1,C,86,1,1233,i,p,r,s,4,4,25%,25%
sub3,1,C,93,1,942,c,m,r,s,1,2,25%,25%
sub3,1,C,94,1,978,i,p,s,s,1,3,25%,25%
sub3,1,C,95,1,1394,c,p,r,s,1,4,25%,25%
sub3,1,C,103,1,958,c,m,s,s,3,2,25%,25%
sub3,1,C,104,1,1114,i,m,r,s,3,3,25%,25%
sub3,1,C,105,1,1076,c,p,s,s,3,4,25%,25%
sub3,1,C,113,1,793,c,p,s,s,4,2,25%,25%
sub3,1,C,114,0,814,i,p,r,s,4,3,25%,25%
sub3,1,C,115,0,NA,i,p,r,s,4,4,25%,25%
sub3,1,C,123,1,1157,c,p,s,s,4,2,25%,25%
sub3,1,C,124,0,852,i,p,r,s,4,3,25%,25%
sub3,1,C,125,1,955,i,p,r,s,4,4,25%,25%
sub3,1,C,133,1,1259,c,p,s,s,3,2,25%,25%
sub3,1,C,134,1,1763,i,p,r,s,3,3,25%,25%
sub3,1,C,135,1,1260,c,m,s,s,3,4,25%,25%
sub3,1,C,142,1,733,c,p,r,s,2,2,25%,25%
sub3,1,C,143,0,823,i,m,s,s,2,3,25%,25%
sub3,1,C,144,1,1345,i,p,s,s,2,4,25%,25%
sub3,1,C,152,1,890,c,p,r,s,2,2,25%,25%
sub3,1,C,153,1,944,i,m,s,s,2,3,25%,25%
sub3,1,C,154,0,891,i,p,s,s,2,4,25%,25%
sub3,2,D,167,1,934,c,p,s,s,3,2,75%,25%
sub3,2,D,168,1,921,i,p,r,s,3,3,75%,25%
sub3,2,D,169,1,813,c,m,s,s,3,4,75%,25%
sub3,2,D,176,0,NA,c,m,s,s,4,2,75%,25%
sub3,2,D,177,0,1259,i,m,r,s,4,3,75%,25%
sub3,2,D,178,1,891,i,m,r,s,4,4,75%,25%
sub3,2,D,185,1,775,c,m,r,s,2,2,75%,25%
sub3,2,D,186,0,797,i,p,s,s,2,3,75%,25%
sub3,2,D,187,1,956,i,m,s,s,2,4,75%,25%
sub3,2,D,194,1,793,c,m,r,s,1,2,75%,25%
sub3,2,D,195,0,832,i,p,s,s,1,3,75%,25%
sub3,2,D,196,1,1031,c,p,r,s,1,4,75%,25%
sub3,2,D,204,1,1004,c,m,s,s,3,2,75%,25%
sub3,2,D,205,1,755,i,m,r,s,3,3,75%,25%
sub3,2,D,206,1,1132,c,p,s,s,3,4,75%,25%
sub3,2,D,214,1,989,c,m,r,s,2,2,75%,25%
sub3,2,D,215,1,1188,i,p,s,s,2,3,75%,25%
sub3,2,D,216,1,877,i,m,s,s,2,4,75%,25%
sub3,2,D,224,1,779,c,m,r,s,1,2,75%,25%
sub3,2,D,225,0,1037,i,p,s,s,1,3,75%,25%
sub3,2,D,226,1,1218,c,p,r,s,1,4,75%,25%
sub3,2,D,233,0,NA,c,p,r,s,1,2,75%,25%
sub3,2,D,234,1,810,i,m,s,s,1,3,75%,25%
sub3,2,D,235,1,1030,c,m,r,s,1,4,75%,25%
sub3,2,D,243,1,1062,c,m,s,s,4,2,75%,25%
sub3,2,D,244,1,1021,i,m,r,s,4,3,75%,25%
sub3,2,D,245,0,921,i,m,r,s,4,4,75%,25%
sub3,2,D,253,1,1115,c,p,r,s,1,2,75%,25%
sub3,2,D,254,1,773,i,m,s,s,1,3,75%,25%
sub3,2,D,255,1,986,c,m,r,s,1,4,75%,25%
sub3,2,D,263,1,1024,c,p,s,s,3,2,75%,25%
sub3,2,D,264,0,NA,i,p,r,s,3,3,75%,25%
sub3,2,D,265,1,791,c,m,s,s,3,4,75%,25%
sub3,2,D,273,1,842,c,m,s,s,4,2,75%,25%
sub3,2,D,274,0,1002,i,m,r,s,4,3,75%,25%
sub3,2,D,275,1,839,i,m,r,s,4,4,75%,25%
sub3,2,D,283,1,806,c,m,s,s,4,2,75%,25%
sub3,2,D,284,0,700,i,m,r,s,4,3,75%,25%
sub3,2,D,285,1,783,i,m,r,s,4,4,75%,25%
sub3,2,D,293,1,720,c,m,s,s,3,2,75%,25%
sub3,2,D,294,1,792,i,m,r,s,3,3,75%,25%
sub3,2,D,295,1,839,c,p,s,s,3,4,75%,25%
sub3,2,D,303,1,786,c,m,r,s,2,2,75%,25%
sub3,2,D,304,1,968,i,p,s,s,2,3,75%,25%
sub3,2,D,305,0,999,i,m,s,s,2,4,75%,25%
sub3,2,D,312,1,799,c,m,r,s,2,2,75%,25%
sub3,2,D,313,1,970,i,p,s,s,2,3,75%,25%
sub3,2,D,314,0,879,i,m,s,s,2,4,75%,25%
sub3,3,B,327,1,1028,c,p,s,s,3,2,75%,75%
sub3,3,B,328,1,862,i,p,r,s,3,3,75%,75%
sub3,3,B,329,1,704,c,m,s,s,3,4,75%,75%
sub3,3,B,337,1,847,c,p,s,s,4,2,75%,75%
sub3,3,B,338,0,970,i,p,r,s,4,3,75%,75%
sub3,3,B,339,1,860,i,p,r,s,4,4,75%,75%
sub3,3,B,347,1,1073,c,m,r,s,2,2,75%,75%
sub3,3,B,348,1,936,i,p,s,s,2,3,75%,75%
sub3,3,B,349,1,993,i,m,s,s,2,4,75%,75%
sub3,3,B,357,1,1015,c,m,r,s,1,2,75%,75%
sub3,3,B,358,0,905,i,p,s,s,1,3,75%,75%
sub3,3,B,359,1,709,c,p,r,s,1,4,75%,75%
sub3,3,B,367,1,995,c,m,s,s,3,2,75%,75%
sub3,3,B,368,1,1386,i,m,r,s,3,3,75%,75%
sub3,3,B,369,1,814,c,p,s,s,3,4,75%,75%
sub3,3,B,377,1,937,c,p,r,s,2,2,75%,75%
sub3,3,B,378,1,1137,i,m,s,s,2,3,75%,75%
sub3,3,B,379,1,938,i,p,s,s,2,4,75%,75%
sub3,3,B,386,1,871,c,p,r,s,1,2,75%,75%
sub3,3,B,387,1,892,i,m,s,s,1,3,75%,75%
sub3,3,B,388,1,750,c,m,r,s,1,4,75%,75%
sub3,3,B,396,1,649,c,m,r,s,1,2,75%,75%
sub3,3,B,397,0,687,i,p,s,s,1,3,75%,75%
sub3,3,B,398,1,861,c,p,r,s,1,4,75%,75%
sub3,3,B,406,1,838,c,m,s,s,4,2,75%,75%
sub3,3,B,407,1,1110,i,m,r,s,4,3,75%,75%
sub3,3,B,408,0,1090,i,m,r,s,4,4,75%,75%
sub3,3,B,416,1,1038,c,p,r,s,1,2,75%,75%
sub3,3,B,417,0,1203,i,m,s,s,1,3,75%,75%
sub3,3,B,418,1,884,c,m,r,s,1,4,75%,75%
sub3,3,B,424,1,775,c,p,s,s,3,2,75%,75%
sub3,3,B,425,1,719,i,p,r,s,3,3,75%,75%
sub3,3,B,426,1,803,c,m,s,s,3,4,75%,75%
sub3,3,B,433,1,860,c,p,s,s,4,2,75%,75%
sub3,3,B,434,1,798,i,p,r,s,4,3,75%,75%
sub3,3,B,435,1,926,i,p,r,s,4,4,75%,75%
sub3,3,B,443,1,752,c,p,s,s,4,2,75%,75%
sub3,3,B,444,1,743,i,p,r,s,4,3,75%,75%
sub3,3,B,445,1,926,i,p,r,s,4,4,75%,75%
sub3,3,B,453,1,904,c,p,s,s,3,2,75%,75%
sub3,3,B,454,0,999,i,p,r,s,3,3,75%,75%
sub3,3,B,455,1,916,c,m,s,s,3,4,75%,75%
sub3,3,B,462,0,NA,c,p,r,s,2,2,75%,75%
sub3,3,B,463,1,867,i,m,s,s,2,3,75%,75%
sub3,3,B,464,1,1098,i,p,s,s,2,4,75%,75%
sub3,3,B,472,1,796,c,m,r,s,2,2,75%,75%
sub3,3,B,473,1,1095,i,p,s,s,2,3,75%,75%
sub3,3,B,474,1,888,i,m,s,s,2,4,75%,75%
sub3,4,A,487,1,944,c,m,s,s,3,2,25%,75%
sub3,4,A,488,1,1298,i,m,r,s,3,3,25%,75%
sub3,4,A,489,1,1016,c,p,s,s,3,4,25%,75%
sub3,4,A,495,1,899,c,m,s,s,4,2,25%,75%
sub3,4,A,496,1,1058,i,m,r,s,4,3,25%,75%
sub3,4,A,497,1,1234,i,m,r,s,4,4,25%,75%
sub3,4,A,505,1,829,c,m,r,s,2,2,25%,75%
sub3,4,A,506,1,1045,i,p,s,s,2,3,25%,75%
sub3,4,A,507,1,894,i,m,s,s,2,4,25%,75%
sub3,4,A,515,1,790,c,m,r,s,1,2,25%,75%
sub3,4,A,516,0,661,i,p,s,s,1,3,25%,75%
sub3,4,A,517,1,1008,c,p,r,s,1,4,25%,75%
sub3,4,A,525,1,1032,c,p,s,s,3,2,25%,75%
sub3,4,A,526,0,1122,i,p,r,s,3,3,25%,75%
sub3,4,A,527,1,1156,c,m,s,s,3,4,25%,75%
sub3,4,A,535,1,807,c,p,r,s,2,2,25%,75%
sub3,4,A,536,1,1031,i,m,s,s,2,3,25%,75%
sub3,4,A,537,1,1125,i,p,s,s,2,4,25%,75%
sub3,4,A,545,1,634,c,m,r,s,1,2,25%,75%
sub3,4,A,546,1,775,i,p,s,s,1,3,25%,75%
sub3,4,A,547,1,935,c,p,r,s,1,4,25%,75%
sub3,4,A,555,1,762,c,p,r,s,1,2,25%,75%
sub3,4,A,556,0,1060,i,m,s,s,1,3,25%,75%
sub3,4,A,557,1,1000,c,m,r,s,1,4,25%,75%
sub3,4,A,564,1,1018,c,p,s,s,4,2,25%,75%
sub3,4,A,565,1,918,i,p,r,s,4,3,25%,75%
sub3,4,A,566,1,751,i,p,r,s,4,4,25%,75%
sub3,4,A,574,1,1176,c,p,r,s,1,2,25%,75%
sub3,4,A,575,1,947,i,m,s,s,1,3,25%,75%
sub3,4,A,576,1,826,c,m,r,s,1,4,25%,75%
sub3,4,A,584,1,863,c,p,s,s,3,2,25%,75%
sub3,4,A,585,0,841,i,p,r,s,3,3,25%,75%
sub3,4,A,586,1,821,c,m,s,s,3,4,25%,75%
sub3,4,A,593,1,1039,c,m,s,s,4,2,25%,75%
sub3,4,A,594,1,757,i,m,r,s,4,3,25%,75%
sub3,4,A,595,1,882,i,m,r,s,4,4,25%,75%
sub3,4,A,603,1,842,c,p,s,s,4,2,25%,75%
sub3,4,A,604,1,932,i,p,r,s,4,3,25%,75%
sub3,4,A,605,1,834,i,p,r,s,4,4,25%,75%
sub3,4,A,613,1,757,c,m,s,s,3,2,25%,75%
sub3,4,A,614,1,1023,i,m,r,s,3,3,25%,75%
sub3,4,A,615,1,838,c,p,s,s,3,4,25%,75%
sub3,4,A,623,1,1192,c,p,r,s,2,2,25%,75%
sub3,4,A,624,1,1032,i,m,s,s,2,3,25%,75%
sub3,4,A,625,1,839,i,p,s,s,2,4,25%,75%
sub3,4,A,632,1,809,c,p,r,s,2,2,25%,75%
sub3,4,A,633,0,845,i,m,s,s,2,3,25%,75%
sub3,4,A,634,1,956,i,p,s,s,2,4,25%,75%
sub4,1,D,7,0,NA,c,p,s,s,4,2,75%,25%
sub4,1,D,8,1,1011,i,p,r,s,4,3,75%,25%
sub4,1,D,9,1,1156,i,p,r,s,4,4,75%,25%
sub4,1,D,17,1,1218,c,p,s,s,3,2,75%,25%
sub4,1,D,18,0,NA,i,p,r,s,3,3,75%,25%
sub4,1,D,19,1,1030,c,m,s,s,3,4,75%,25%
sub4,1,D,27,0,1476,c,p,s,s,3,2,75%,25%
sub4,1,D,28,1,1473,i,p,r,s,3,3,75%,25%
sub4,1,D,29,0,1295,c,m,s,s,3,4,75%,25%
sub4,1,D,37,1,988,c,m,r,s,2,2,75%,25%
sub4,1,D,38,1,1144,i,p,s,s,2,3,75%,25%
sub4,1,D,39,1,1203,i,m,s,s,2,4,75%,25%
sub4,1,D,47,1,914,c,p,r,s,1,2,75%,25%
sub4,1,D,48,1,1181,i,m,s,s,1,3,75%,25%
sub4,1,D,49,1,1000,c,m,r,s,1,4,75%,25%
sub4,1,D,57,1,918,c,p,r,s,2,2,75%,25%
sub4,1,D,58,0,1096,i,m,s,s,2,3,75%,25%
sub4,1,D,59,0,1308,i,p,s,s,2,4,75%,25%
sub4,1,D,67,1,973,c,p,r,s,2,2,75%,25%
sub4,1,D,68,0,955,i,m,s,s,2,3,75%,25%
sub4,1,D,69,1,1300,i,p,s,s,2,4,75%,25%
sub4,1,D,76,1,1136,c,p,s,s,3,2,75%,25%
sub4,1,D,77,1,970,i,p,r,s,3,3,75%,25%
sub4,1,D,78,0,NA,c,m,s,s,3,4,75%,25%
sub4,1,D,86,1,1322,c,p,r,s,1,2,75%,25%
sub4,1,D,87,0,NA,i,m,s,s,1,3,75%,25%
sub4,1,D,88,1,961,c,m,r,s,1,4,75%,25%
sub4,1,D,96,1,911,c,m,s,s,4,2,75%,25%
sub4,1,D,97,1,859,i,m,r,s,4,3,75%,25%
sub4,1,D,98,1,860,i,m,r,s,4,4,75%,25%
sub4,1,D,106,1,1145,c,p,r,s,2,2,75%,25%
sub4,1,D,107,0,991,i,m,s,s,2,3,75%,25%
sub4,1,D,108,0,984,i,p,s,s,2,4,75%,25%
sub4,1,D,116,1,1074,c,p,r,s,1,2,75%,25%
sub4,1,D,117,1,1222,i,m,s,s,1,3,75%,25%
sub4,1,D,118,1,740,c,m,r,s,1,4,75%,25%
sub4,1,D,126,1,905,c,p,s,s,4,2,75%,25%
sub4,1,D,127,0,1323,i,p,r,s,4,3,75%,25%
sub4,1,D,128,0,1255,i,p,r,s,4,4,75%,25%
sub4,1,D,135,1,788,c,m,s,s,4,2,75%,25%
sub4,1,D,136,1,854,i,m,r,s,4,3,75%,25%
sub4,1,D,137,1,849,i,m,r,s,4,4,75%,25%
sub4,1,D,144,1,1118,c,p,s,s,3,2,75%,25%
sub4,1,D,145,1,1122,i,p,r,s,3,3,75%,25%
sub4,1,D,146,1,1119,c,m,s,s,3,4,75%,25%
sub4,1,D,152,1,1128,c,m,r,s,1,2,75%,25%
sub4,1,D,153,0,1011,i,p,s,s,1,3,75%,25%
sub4,1,D,154,1,945,c,p,r,s,1,4,75%,25%
sub4,2,A,167,1,1099,c,p,s,s,4,2,25%,75%
sub4,2,A,168,1,1222,i,p,r,s,4,3,25%,75%
sub4,2,A,169,1,892,i,p,r,s,4,4,25%,75%
sub4,2,A,176,1,1308,c,p,s,s,3,2,25%,75%
sub4,2,A,177,1,1240,i,p,r,s,3,3,25%,75%
sub4,2,A,178,1,1153,c,m,s,s,3,4,25%,75%
sub4,2,A,186,1,989,c,m,s,s,3,2,25%,75%
sub4,2,A,187,1,944,i,m,r,s,3,3,25%,75%
sub4,2,A,188,1,827,c,p,s,s,3,4,25%,75%
sub4,2,A,196,1,1089,c,p,r,s,2,2,25%,75%
sub4,2,A,197,0,904,i,m,s,s,2,3,25%,75%
sub4,2,A,198,1,978,i,p,s,s,2,4,25%,75%
sub4,2,A,206,1,788,c,p,r,s,1,2,25%,75%
sub4,2,A,207,0,770,i,m,s,s,1,3,25%,75%
sub4,2,A,208,1,1021,c,m,r,s,1,4,25%,75%
sub4,2,A,216,1,1066,c,p,r,s,2,2,25%,75%
sub4,2,A,217,1,892,i,m,s,s,2,3,25%,75%
sub4,2,A,218,1,1162,i,p,s,s,2,4,25%,75%
sub4,2,A,225,1,951,c,p,r,s,2,2,25%,75%
sub4,2,A,226,0,934,i,m,s,s,2,3,25%,75%
sub4,2,A,227,1,1024,i,p,s,s,2,4,25%,75%
sub4,2,A,235,1,1276,c,p,s,s,3,2,25%,75%
sub4,2,A,236,1,1237,i,p,r,s,3,3,25%,75%
sub4,2,A,237,1,1506,c,m,s,s,3,4,25%,75%
sub4,2,A,245,1,784,c,p,r,s,1,2,25%,75%
sub4,2,A,246,1,1223,i,m,s,s,1,3,25%,75%
sub4,2,A,247,1,1305,c,m,r,s,1,4,25%,75%
sub4,2,A,254,1,1333,c,p,s,s,4,2,25%,75%
sub4,2,A,255,1,920,i,p,r,s,4,3,25%,75%
sub4,2,A,256,1,859,i,p,r,s,4,4,25%,75%
sub4,2,A,264,1,925,c,p,r,s,2,2,25%,75%
sub4,2,A,265,1,1000,i,m,s,s,2,3,25%,75%
sub4,2,A,266,1,975,i,p,s,s,2,4,25%,75%
sub4,2,A,274,1,914,c,m,r,s,1,2,25%,75%
sub4,2,A,275,1,1095,i,p,s,s,1,3,25%,75%
sub4,2,A,276,1,1174,c,p,r,s,1,4,25%,75%
sub4,2,A,283,1,843,c,m,s,s,4,2,25%,75%
sub4,2,A,284,1,959,i,m,r,s,4,3,25%,75%
sub4,2,A,285,1,1097,i,m,r,s,4,4,25%,75%
sub4,2,A,292,1,1175,c,m,s,s,4,2,25%,75%
sub4,2,A,293,1,1436,i,m,r,s,4,3,25%,75%
sub4,2,A,294,1,738,i,m,r,s,4,4,25%,75%
sub4,2,A,302,1,1255,c,p,s,s,3,2,25%,75%
sub4,2,A,303,1,1095,i,p,r,s,3,3,25%,75%
sub4,2,A,304,1,1229,c,m,s,s,3,4,25%,75%
sub4,2,A,312,1,886,c,m,r,s,1,2,25%,75%
sub4,2,A,313,1,1101,i,p,s,s,1,3,25%,75%
sub4,2,A,314,1,1194,c,p,r,s,1,4,25%,75%
sub4,3,C,327,1,777,c,m,s,s,4,2,25%,25%
sub4,3,C,328,1,1070,i,m,r,s,4,3,25%,25%
sub4,3,C,329,1,1113,i,m,r,s,4,4,25%,25%
sub4,3,C,337,1,1218,c,p,s,s,3,2,25%,25%
sub4,3,C,338,1,868,i,p,r,s,3,3,25%,25%
sub4,3,C,339,1,963,c,m,s,s,3,4,25%,25%
sub4,3,C,347,1,1252,c,p,s,s,3,2,25%,25%
sub4,3,C,348,1,979,i,p,r,s,3,3,25%,25%
sub4,3,C,349,1,989,c,m,s,s,3,4,25%,25%
sub4,3,C,357,1,776,c,p,r,s,2,2,25%,25%
sub4,3,C,358,1,1158,i,m,s,s,2,3,25%,25%
sub4,3,C,359,1,981,i,p,s,s,2,4,25%,25%
sub4,3,C,367,1,1136,c,p,r,s,1,2,25%,25%
sub4,3,C,368,1,1094,i,m,s,s,1,3,25%,25%
sub4,3,C,369,1,944,c,m,r,s,1,4,25%,25%
sub4,3,C,377,1,966,c,m,r,s,2,2,25%,25%
sub4,3,C,378,1,1025,i,p,s,s,2,3,25%,25%
sub4,3,C,379,1,1202,i,m,s,s,2,4,25%,25%
sub4,3,C,387,1,1025,c,m,r,s,2,2,25%,25%
sub4,3,C,388,1,1018,i,p,s,s,2,3,25%,25%
sub4,3,C,389,1,1280,i,m,s,s,2,4,25%,25%
sub4,3,C,397,1,1123,c,p,s,s,3,2,25%,25%
sub4,3,C,398,1,1098,i,p,r,s,3,3,25%,25%
sub4,3,C,399,1,1400,c,m,s,s,3,4,25%,25%
sub4,3,C,407,1,1393,c,p,r,s,1,2,25%,25%
sub4,3,C,408,1,1064,i,m,s,s,1,3,25%,25%
sub4,3,C,409,1,1115,c,m,r,s,1,4,25%,25%
sub4,3,C,417,1,960,c,m,s,s,4,2,25%,25%
sub4,3,C,418,0,1097,i,m,r,s,4,3,25%,25%
sub4,3,C,419,1,984,i,m,r,s,4,4,25%,25%
sub4,3,C,427,1,805,c,p,r,s,2,2,25%,25%
sub4,3,C,428,1,1112,i,m,s,s,2,3,25%,25%
sub4,3,C,429,1,1048,i,p,s,s,2,4,25%,25%
sub4,3,C,435,1,972,c,p,r,s,1,2,25%,25%
sub4,3,C,436,1,808,i,m,s,s,1,3,25%,25%
sub4,3,C,437,1,726,c,m,r,s,1,4,25%,25%
sub4,3,C,444,1,891,c,p,s,s,4,2,25%,25%
sub4,3,C,445,1,896,i,p,r,s,4,3,25%,25%
sub4,3,C,446,1,1142,i,p,r,s,4,4,25%,25%
sub4,3,C,454,1,963,c,m,s,s,4,2,25%,25%
sub4,3,C,455,1,903,i,m,r,s,4,3,25%,25%
sub4,3,C,456,1,925,i,m,r,s,4,4,25%,25%
sub4,3,C,464,1,1148,c,m,s,s,3,2,25%,25%
sub4,3,C,465,1,1304,i,m,r,s,3,3,25%,25%
sub4,3,C,466,1,1006,c,p,s,s,3,4,25%,25%
sub4,3,C,474,1,746,c,m,r,s,1,2,25%,25%
sub4,3,C,475,1,820,i,p,s,s,1,3,25%,25%
sub4,3,C,476,1,925,c,p,r,s,1,4,25%,25%
sub4,4,B,487,1,1004,c,p,s,s,4,2,75%,75%
sub4,4,B,488,1,1128,i,p,r,s,4,3,75%,75%
sub4,4,B,489,0,1169,i,p,r,s,4,4,75%,75%
sub4,4,B,497,1,1009,c,m,s,s,3,2,75%,75%
sub4,4,B,498,1,799,i,m,r,s,3,3,75%,75%
sub4,4,B,499,1,883,c,p,s,s,3,4,75%,75%
sub4,4,B,507,1,846,c,p,s,s,3,2,75%,75%
sub4,4,B,508,0,1176,i,p,r,s,3,3,75%,75%
sub4,4,B,509,1,809,c,m,s,s,3,4,75%,75%
sub4,4,B,515,1,1018,c,p,r,s,2,2,75%,75%
sub4,4,B,516,1,1074,i,m,s,s,2,3,75%,75%
sub4,4,B,517,1,956,i,p,s,s,2,4,75%,75%
sub4,4,B,524,1,803,c,m,r,s,1,2,75%,75%
sub4,4,B,525,1,1012,i,p,s,s,1,3,75%,75%
sub4,4,B,526,1,1300,c,p,r,s,1,4,75%,75%
sub4,4,B,534,1,737,c,m,r,s,2,2,75%,75%
sub4,4,B,535,1,863,i,p,s,s,2,3,75%,75%
sub4,4,B,536,1,1183,i,m,s,s,2,4,75%,75%
sub4,4,B,543,1,1078,c,p,r,s,2,2,75%,75%
sub4,4,B,544,1,1119,i,m,s,s,2,3,75%,75%
sub4,4,B,545,1,1020,i,p,s,s,2,4,75%,75%
sub4,4,B,553,1,874,c,m,s,s,3,2,75%,75%
sub4,4,B,554,1,778,i,m,r,s,3,3,75%,75%
sub4,4,B,555,1,930,c,p,s,s,3,4,75%,75%
sub4,4,B,563,1,851,c,p,r,s,1,2,75%,75%
sub4,4,B,564,1,793,i,m,s,s,1,3,75%,75%
sub4,4,B,565,1,692,c,m,r,s,1,4,75%,75%
sub4,4,B,573,1,825,c,p,s,s,4,2,75%,75%
sub4,4,B,574,1,808,i,p,r,s,4,3,75%,75%
sub4,4,B,575,1,1033,i,p,r,s,4,4,75%,75%
sub4,4,B,582,1,827,c,m,r,s,2,2,75%,75%
sub4,4,B,583,1,1009,i,p,s,s,2,3,75%,75%
sub4,4,B,584,1,967,i,m,s,s,2,4,75%,75%
sub4,4,B,592,1,886,c,p,r,s,1,2,75%,75%
sub4,4,B,593,1,942,i,m,s,s,1,3,75%,75%
sub4,4,B,594,1,1134,c,m,r,s,1,4,75%,75%
sub4,4,B,602,1,789,c,m,s,s,4,2,75%,75%
sub4,4,B,603,1,1215,i,m,r,s,4,3,75%,75%
sub4,4,B,604,0,807,i,m,r,s,4,4,75%,75%
sub4,4,B,612,1,939,c,p,s,s,4,2,75%,75%
sub4,4,B,613,1,1229,i,p,r,s,4,3,75%,75%
sub4,4,B,614,1,938,i,p,r,s,4,4,75%,75%
sub4,4,B,622,1,829,c,p,s,s,3,2,75%,75%
sub4,4,B,623,1,1047,i,p,r,s,3,3,75%,75%
sub4,4,B,624,1,767,c,m,s,s,3,4,75%,75%
sub4,4,B,632,0,1290,c,p,r,s,1,2,75%,75%
sub4,4,B,633,1,948,i,m,s,s,1,3,75%,75%
sub4,4,B,634,1,820,c,m,r,s,1,4,75%,75%
sub5,1,C,7,1,651,c,m,r,s,2,2,25%,25%
sub5,1,C,8,1,1261,i,p,s,s,2,3,25%,25%
sub5,1,C,9,1,1008,i,m,s,s,2,4,25%,25%
sub5,1,C,15,1,1294,c,p,r,s,2,2,25%,25%
sub5,1,C,16,0,NA,i,m,s,s,2,3,25%,25%
sub5,1,C,17,0,979,i,p,s,s,2,4,25%,25%
sub5,1,C,25,1,1362,c,p,s,s,3,2,25%,25%
sub5,1,C,26,0,1248,i,p,r,s,3,3,25%,25%
sub5,1,C,27,1,899,c,m,s,s,3,4,25%,25%
sub5,1,C,35,1,875,c,p,s,s,3,2,25%,25%
sub5,1,C,36,1,857,i,p,r,s,3,3,25%,25%
sub5,1,C,37,1,985,c,m,s,s,3,4,25%,25%
sub5,1,C,45,1,1029,c,p,r,s,1,2,25%,25%
sub5,1,C,46,1,1149,i,m,s,s,1,3,25%,25%
sub5,1,C,47,1,949,c,m,r,s,1,4,25%,25%
sub5,1,C,55,1,979,c,p,r,s,1,2,25%,25%
sub5,1,C,56,1,1048,i,m,s,s,1,3,25%,25%
sub5,1,C,57,1,999,c,m,r,s,1,4,25%,25%
sub5,1,C,65,1,687,c,p,r,s,1,2,25%,25%
sub5,1,C,66,1,727,i,m,s,s,1,3,25%,25%
sub5,1,C,67,0,1007,c,m,r,s,1,4,25%,25%
sub5,1,C,75,1,1158,c,p,r,s,1,2,25%,25%
sub5,1,C,76,1,929,i,m,s,s,1,3,25%,25%
sub5,1,C,77,0,1087,c,m,r,s,1,4,25%,25%
sub5,1,C,85,1,742,c,p,r,s,2,2,25%,25%
sub5,1,C,86,1,1141,i,m,s,s,2,3,25%,25%
sub5,1,C,87,1,1369,i,p,s,s,2,4,25%,25%
sub5,1,C,95,1,1232,c,p,s,s,3,2,25%,25%
sub5,1,C,96,1,831,i,p,r,s,3,3,25%,25%
sub5,1,C,97,1,709,c,m,s,s,3,4,25%,25%
sub5,1,C,105,1,786,c,p,s,s,4,2,25%,25%
sub5,1,C,106,1,901,i,p,r,s,4,3,25%,25%
sub5,1,C,107,1,1086,i,p,r,s,4,4,25%,25%
sub5,1,C,114,1,1062,c,m,s,s,3,2,25%,25%
sub5,1,C,115,1,1349,i,m,r,s,3,3,25%,25%
sub5,1,C,116,1,1054,c,p,s,s,3,4,25%,25%
sub5,1,C,124,1,934,c,p,s,s,4,2,25%,25%
sub5,1,C,125,0,792,i,p,r,s,4,3,25%,25%
sub5,1,C,126,0,NA,i,p,r,s,4,4,25%,25%
sub5,1,C,133,1,697,c,p,r,s,2,2,25%,25%
sub5,1,C,134,1,1147,i,m,s,s,2,3,25%,25%
sub5,1,C,135,1,1253,i,p,s,s,2,4,25%,25%
sub5,1,C,142,1,573,c,m,s,s,4,2,25%,25%
sub5,1,C,143,1,580,i,m,r,s,4,3,25%,25%
sub5,1,C,144,1,726,i,m,r,s,4,4,25%,25%
sub5,1,C,152,1,1132,c,p,s,s,4,2,25%,25%
sub5,1,C,153,1,897,i,p,r,s,4,3,25%,25%
sub5,1,C,154,0,NA,i,p,r,s,4,4,25%,25%
sub5,2,D,167,1,706,c,m,r,s,2,2,75%,25%
sub5,2,D,168,0,1231,i,p,s,s,2,3,75%,25%
sub5,2,D,169,1,1106,i,m,s,s,2,4,75%,25%
sub5,2,D,177,1,843,c,m,r,s,2,2,75%,25%
sub5,2,D,178,1,1170,i,p,s,s,2,3,75%,25%
sub5,2,D,179,1,785,i,m,s,s,2,4,75%,25%
sub5,2,D,187,1,607,c,m,s,s,3,2,75%,25%
sub5,2,D,188,1,595,i,m,r,s,3,3,75%,25%
sub5,2,D,189,1,764,c,p,s,s,3,4,75%,25%
sub5,2,D,197,1,906,c,m,s,s,3,2,75%,25%
sub5,2,D,198,1,559,i,m,r,s,3,3,75%,25%
sub5,2,D,199,1,1161,c,p,s,s,3,4,75%,25%
sub5,2,D,207,1,810,c,p,r,s,1,2,75%,25%
sub5,2,D,208,1,857,i,m,s,s,1,3,75%,25%
sub5,2,D,209,1,587,c,m,r,s,1,4,75%,25%
sub5,2,D,216,1,1013,c,p,r,s,1,2,75%,25%
sub5,2,D,217,1,573,i,m,s,s,1,3,75%,25%
sub5,2,D,218,1,624,c,m,r,s,1,4,75%,25%
sub5,2,D,225,1,1104,c,m,r,s,1,2,75%,25%
sub5,2,D,226,1,1148,i,p,s,s,1,3,75%,25%
sub5,2,D,227,1,1210,c,p,r,s,1,4,75%,25%
sub5,2,D,235,1,1139,c,p,r,s,1,2,75%,25%
sub5,2,D,236,1,783,i,m,s,s,1,3,75%,25%
sub5,2,D,237,1,679,c,m,r,s,1,4,75%,25%
sub5,2,D,245,1,558,c,m,r,s,2,2,75%,25%
sub5,2,D,246,1,1173,i,p,s,s,2,3,75%,25%
sub5,2,D,247,1,667,i,m,s,s,2,4,75%,25%
sub5,2,D,255,1,872,c,p,s,s,3,2,75%,25%
sub5,2,D,256,1,917,i,p,r,s,3,3,75%,25%
sub5,2,D,257,1,795,c,m,s,s,3,4,75%,25%
sub5,2,D,263,1,945,c,p,s,s,4,2,75%,25%
sub5,2,D,264,1,1056,i,p,r,s,4,3,75%,25%
sub5,2,D,265,1,984,i,p,r,s,4,4,75%,25%
sub5,2,D,273,1,770,c,p,s,s,3,2,75%,25%
sub5,2,D,274,0,1311,i,p,r,s,3,3,75%,25%
sub5,2,D,275,1,886,c,m,s,s,3,4,75%,25%
sub5,2,D,283,1,637,c,m,s,s,4,2,75%,25%
sub5,2,D,284,1,1328,i,m,r,s,4,3,75%,25%
sub5,2,D,285,1,745,i,m,r,s,4,4,75%,25%
sub5,2,D,293,1,657,c,p,r,s,2,2,75%,25%
sub5,2,D,294,1,587,i,m,s,s,2,3,75%,25%
sub5,2,D,295,0,794,i,p,s,s,2,4,75%,25%
sub5,2,D,303,1,1191,c,m,s,s,4,2,75%,25%
sub5,2,D,304,1,879,i,m,r,s,4,3,75%,25%
sub5,2,D,305,1,1453,i,m,r,s,4,4,75%,25%
sub5,2,D,313,1,818,c,m,s,s,4,2,75%,25%
sub5,2,D,314,1,899,i,m,r,s,4,3,75%,25%
sub5,2,D,315,1,635,i,m,r,s,4,4,75%,25%
sub5,3,B,327,1,583,c,m,r,s,2,2,75%,75%
sub5,3,B,328,1,1225,i,p,s,s,2,3,75%,75%
sub5,3,B,329,1,983,i,m,s,s,2,4,75%,75%
sub5,3,B,337,1,779,c,m,r,s,2,2,75%,75%
sub5,3,B,338,0,885,i,p,s,s,2,3,75%,75%
sub5,3,B,339,1,667,i,m,s,s,2,4,75%,75%
sub5,3,B,347,1,591,c,m,s,s,3,2,75%,75%
sub5,3,B,348,1,588,i,m,r,s,3,3,75%,75%
sub5,3,B,349,1,1345,c,p,s,s,3,4,75%,75%
sub5,3,B,357,1,979,c,p,s,s,3,2,75%,75%
sub5,3,B,358,1,1307,i,p,r,s,3,3,75%,75%
sub5,3,B,359,1,630,c,m,s,s,3,4,75%,75%
sub5,3,B,366,0,NA,c,p,r,s,1,2,75%,75%
sub5,3,B,367,1,635,i,m,s,s,1,3,75%,75%
sub5,3,B,368,1,1367,c,m,r,s,1,4,75%,75%
sub5,3,B,376,1,978,c,p,r,s,1,2,75%,75%
sub5,3,B,377,1,1253,i,m,s,s,1,3,75%,75%
sub5,3,B,378,1,612,c,m,r,s,1,4,75%,75%
sub5,3,B,386,1,1016,c,p,r,s,1,2,75%,75%
sub5,3,B,387,1,722,i,m,s,s,1,3,75%,75%
sub5,3,B,388,1,1012,c,m,r,s,1,4,75%,75%
sub5,3,B,394,1,535,c,m,r,s,1,2,75%,75%
sub5,3,B,395,1,860,i,p,s,s,1,3,75%,75%
sub5,3,B,396,1,1230,c,p,r,s,1,4,75%,75%
sub5,3,B,404,1,672,c,m,r,s,2,2,75%,75%
sub5,3,B,405,1,743,i,p,s,s,2,3,75%,75%
sub5,3,B,406,1,828,i,m,s,s,2,4,75%,75%
sub5,3,B,414,1,813,c,p,s,s,3,2,75%,75%
sub5,3,B,415,1,1326,i,p,r,s,3,3,75%,75%
sub5,3,B,416,1,527,c,m,s,s,3,4,75%,75%
sub5,3,B,424,1,904,c,m,s,s,4,2,75%,75%
sub5,3,B,425,1,687,i,m,r,s,4,3,75%,75%
sub5,3,B,426,1,646,i,m,r,s,4,4,75%,75%
sub5,3,B,434,1,1224,c,p,s,s,3,2,75%,75%
sub5,3,B,435,1,734,i,p,r,s,3,3,75%,75%
sub5,3,B,436,1,943,c,m,s,s,3,4,75%,75%
sub5,3,B,444,1,778,c,m,s,s,4,2,75%,75%
sub5,3,B,445,1,738,i,m,r,s,4,3,75%,75%
sub5,3,B,446,1,887,i,m,r,s,4,4,75%,75%
sub5,3,B,454,0,1021,c,p,r,s,2,2,75%,75%
sub5,3,B,455,1,1306,i,m,s,s,2,3,75%,75%
sub5,3,B,456,1,1166,i,p,s,s,2,4,75%,75%
sub5,3,B,464,1,901,c,m,s,s,4,2,75%,75%
sub5,3,B,465,1,1491,i,m,r,s,4,3,75%,75%
sub5,3,B,466,1,755,i,m,r,s,4,4,75%,75%
sub5,3,B,472,1,672,c,p,s,s,4,2,75%,75%
sub5,3,B,473,1,1181,i,p,r,s,4,3,75%,75%
sub5,3,B,474,1,1177,i,p,r,s,4,4,75%,75%
sub5,4,A,487,1,796,c,p,r,s,2,2,25%,75%
sub5,4,A,488,1,1225,i,m,s,s,2,3,25%,75%
sub5,4,A,489,1,1247,i,p,s,s,2,4,25%,75%
sub5,4,A,497,1,610,c,m,r,s,2,2,25%,75%
sub5,4,A,498,1,1075,i,p,s,s,2,3,25%,75%
sub5,4,A,499,1,738,i,m,s,s,2,4,25%,75%
sub5,4,A,507,1,1098,c,p,s,s,3,2,25%,75%
sub5,4,A,508,1,1021,i,p,r,s,3,3,25%,75%
sub5,4,A,509,1,536,c,m,s,s,3,4,25%,75%
sub5,4,A,517,1,843,c,m,s,s,3,2,25%,75%
sub5,4,A,518,1,690,i,m,r,s,3,3,25%,75%
sub5,4,A,519,1,969,c,p,s,s,3,4,25%,75%
sub5,4,A,525,1,610,c,m,r,s,1,2,25%,75%
sub5,4,A,526,1,800,i,p,s,s,1,3,25%,75%
sub5,4,A,527,1,1256,c,p,r,s,1,4,25%,75%
sub5,4,A,534,1,649,c,m,r,s,1,2,25%,75%
sub5,4,A,535,1,905,i,p,s,s,1,3,25%,75%
sub5,4,A,536,1,676,c,p,r,s,1,4,25%,75%
sub5,4,A,544,1,567,c,m,r,s,1,2,25%,75%
sub5,4,A,545,1,916,i,p,s,s,1,3,25%,75%
sub5,4,A,546,1,1168,c,p,r,s,1,4,25%,75%
sub5,4,A,554,0,1320,c,p,r,s,1,2,25%,75%
sub5,4,A,555,1,744,i,m,s,s,1,3,25%,75%
sub5,4,A,556,1,684,c,m,r,s,1,4,25%,75%
sub5,4,A,564,1,1126,c,p,r,s,2,2,25%,75%
sub5,4,A,565,1,637,i,m,s,s,2,3,25%,75%
sub5,4,A,566,1,1122,i,p,s,s,2,4,25%,75%
sub5,4,A,574,1,909,c,p,s,s,3,2,25%,75%
sub5,4,A,575,1,1270,i,p,r,s,3,3,25%,75%
sub5,4,A,576,1,651,c,m,s,s,3,4,25%,75%
sub5,4,A,584,1,766,c,m,s,s,4,2,25%,75%
sub5,4,A,585,1,643,i,m,r,s,4,3,25%,75%
sub5,4,A,586,1,570,i,m,r,s,4,4,25%,75%
sub5,4,A,594,1,1106,c,p,s,s,3,2,25%,75%
sub5,4,A,595,1,945,i,p,r,s,3,3,25%,75%
sub5,4,A,596,1,723,c,m,s,s,3,4,25%,75%
sub5,4,A,604,1,1175,c,p,s,s,4,2,25%,75%
sub5,4,A,605,1,1090,i,p,r,s,4,3,25%,75%
sub5,4,A,606,1,940,i,p,r,s,4,4,25%,75%
sub5,4,A,614,1,939,c,p,r,s,2,2,25%,75%
sub5,4,A,615,1,619,i,m,s,s,2,3,25%,75%
sub5,4,A,616,1,966,i,p,s,s,2,4,25%,75%
sub5,4,A,624,1,930,c,m,s,s,4,2,25%,75%
sub5,4,A,625,1,891,i,m,r,s,4,3,25%,75%
sub5,4,A,626,1,667,i,m,r,s,4,4,25%,75%
sub5,4,A,634,1,782,c,m,s,s,4,2,25%,75%
sub5,4,A,635,1,615,i,m,r,s,4,3,25%,75%
sub5,4,A,636,1,710,i,m,r,s,4,4,25%,75%
sub6,1,B,7,1,900,c,p,r,s,2,2,75%,75%
sub6,1,B,8,1,880,i,m,s,s,2,3,75%,75%
sub6,1,B,9,0,1095,i,p,s,s,2,4,75%,75%
sub6,1,B,17,1,1166,c,p,r,s,2,2,75%,75%
sub6,1,B,18,1,1042,i,m,s,s,2,3,75%,75%
sub6,1,B,19,1,1303,i,p,s,s,2,4,75%,75%
sub6,1,B,25,1,986,c,p,r,s,2,2,75%,75%
sub6,1,B,26,1,942,i,m,s,s,2,3,75%,75%
sub6,1,B,27,1,1095,i,p,s,s,2,4,75%,75%
sub6,1,B,35,1,1177,c,m,s,s,4,2,75%,75%
sub6,1,B,36,1,1124,i,m,r,s,4,3,75%,75%
sub6,1,B,37,1,880,i,m,r,s,4,4,75%,75%
sub6,1,B,45,1,1014,c,m,r,s,1,2,75%,75%
sub6,1,B,46,0,1439,i,p,s,s,1,3,75%,75%
sub6,1,B,47,1,1117,c,p,r,s,1,4,75%,75%
sub6,1,B,55,1,1219,c,p,r,s,1,2,75%,75%
sub6,1,B,56,1,1049,i,m,s,s,1,3,75%,75%
sub6,1,B,57,1,1223,c,m,r,s,1,4,75%,75%
sub6,1,B,65,1,1003,c,p,s,s,3,2,75%,75%
sub6,1,B,66,1,1218,i,p,r,s,3,3,75%,75%
sub6,1,B,67,1,1127,c,m,s,s,3,4,75%,75%
sub6,1,B,73,1,1018,c,p,r,s,2,2,75%,75%
sub6,1,B,74,1,891,i,m,s,s,2,3,75%,75%
sub6,1,B,75,0,850,i,p,s,s,2,4,75%,75%
sub6,1,B,83,1,965,c,m,s,s,4,2,75%,75%
sub6,1,B,84,1,1032,i,m,r,s,4,3,75%,75%
sub6,1,B,85,1,996,i,m,r,s,4,4,75%,75%
sub6,1,B,93,1,964,c,m,r,s,1,2,75%,75%
sub6,1,B,94,1,1313,i,p,s,s,1,3,75%,75%
sub6,1,B,95,1,1125,c,p,r,s,1,4,75%,75%
sub6,1,B,103,1,1379,c,p,s,s,3,2,75%,75%
sub6,1,B,104,1,1107,i,p,r,s,3,3,75%,75%
sub6,1,B,105,1,987,c,m,s,s,3,4,75%,75%
sub6,1,B,113,1,1378,c,p,s,s,3,2,75%,75%
sub6,1,B,114,1,1395,i,p,r,s,3,3,75%,75%
sub6,1,B,115,1,1052,c,m,s,s,3,4,75%,75%
sub6,1,B,123,1,1019,c,m,r,s,1,2,75%,75%
sub6,1,B,124,0,1271,i,p,s,s,1,3,75%,75%
sub6,1,B,125,1,1045,c,p,r,s,1,4,75%,75%
sub6,1,B,133,1,922,c,m,s,s,3,2,75%,75%
sub6,1,B,134,1,906,i,m,r,s,3,3,75%,75%
sub6,1,B,135,1,970,c,p,s,s,3,4,75%,75%
sub6,1,B,143,1,1149,c,p,s,s,4,2,75%,75%
sub6,1,B,144,0,1235,i,p,r,s,4,3,75%,75%
sub6,1,B,145,1,967,i,p,r,s,4,4,75%,75%
sub6,1,B,152,1,997,c,m,s,s,4,2,75%,75%
sub6,1,B,153,1,767,i,m,r,s,4,3,75%,75%
sub6,1,B,154,1,866,i,m,r,s,4,4,75%,75%
sub6,2,C,167,1,1233,c,p,r,s,2,2,25%,25%
sub6,2,C,168,1,961,i,m,s,s,2,3,25%,25%
sub6,2,C,169,1,1079,i,p,s,s,2,4,25%,25%
sub6,2,C,177,1,815,c,m,r,s,2,2,25%,25%
sub6,2,C,178,0,1180,i,p,s,s,2,3,25%,25%
sub6,2,C,179,1,912,i,m,s,s,2,4,25%,25%
sub6,2,C,187,1,905,c,m,r,s,2,2,25%,25%
sub6,2,C,188,1,1063,i,p,s,s,2,3,25%,25%
sub6,2,C,189,1,734,i,m,s,s,2,4,25%,25%
sub6,2,C,197,1,1090,c,p,s,s,4,2,25%,25%
sub6,2,C,198,1,1016,i,p,r,s,4,3,25%,25%
sub6,2,C,199,0,825,i,p,r,s,4,4,25%,25%
sub6,2,C,207,1,1025,c,p,r,s,1,2,25%,25%
sub6,2,C,208,1,1353,i,m,s,s,1,3,25%,25%
sub6,2,C,209,1,985,c,m,r,s,1,4,25%,25%
sub6,2,C,216,1,1050,c,p,r,s,1,2,25%,25%
sub6,2,C,217,0,938,i,m,s,s,1,3,25%,25%
sub6,2,C,218,1,1239,c,m,r,s,1,4,25%,25%
sub6,2,C,224,1,1128,c,p,s,s,3,2,25%,25%
sub6,2,C,225,1,1020,i,p,r,s,3,3,25%,25%
sub6,2,C,226,0,971,c,m,s,s,3,4,25%,25%
sub6,2,C,234,1,929,c,m,r,s,2,2,25%,25%
sub6,2,C,235,1,1307,i,p,s,s,2,3,25%,25%
sub6,2,C,236,1,931,i,m,s,s,2,4,25%,25%
sub6,2,C,243,1,1000,c,p,s,s,4,2,25%,25%
sub6,2,C,244,1,970,i,p,r,s,4,3,25%,25%
sub6,2,C,245,0,853,i,p,r,s,4,4,25%,25%
sub6,2,C,253,1,735,c,m,r,s,1,2,25%,25%
sub6,2,C,254,1,1404,i,p,s,s,1,3,25%,25%
sub6,2,C,255,1,900,c,p,r,s,1,4,25%,25%
sub6,2,C,262,1,1156,c,p,s,s,3,2,25%,25%
sub6,2,C,263,1,1052,i,p,r,s,3,3,25%,25%
sub6,2,C,264,1,907,c,m,s,s,3,4,25%,25%
sub6,2,C,272,1,968,c,p,s,s,3,2,25%,25%
sub6,2,C,273,1,766,i,p,r,s,3,3,25%,25%
sub6,2,C,274,1,878,c,m,s,s,3,4,25%,25%
sub6,2,C,282,1,922,c,m,r,s,1,2,25%,25%
sub6,2,C,283,0,838,i,p,s,s,1,3,25%,25%
sub6,2,C,284,1,968,c,p,r,s,1,4,25%,25%
sub6,2,C,292,1,988,c,p,s,s,3,2,25%,25%
sub6,2,C,293,1,948,i,p,r,s,3,3,25%,25%
sub6,2,C,294,1,1000,c,m,s,s,3,4,25%,25%
sub6,2,C,302,1,870,c,p,s,s,4,2,25%,25%
sub6,2,C,303,1,1023,i,p,r,s,4,3,25%,25%
sub6,2,C,304,1,855,i,p,r,s,4,4,25%,25%
sub6,2,C,312,1,1064,c,p,s,s,4,2,25%,25%
sub6,2,C,313,1,880,i,p,r,s,4,3,25%,25%
sub6,2,C,314,1,1035,i,p,r,s,4,4,25%,25%
sub6,3,A,327,1,920,c,p,r,s,2,2,25%,75%
sub6,3,A,328,1,896,i,m,s,s,2,3,25%,75%
sub6,3,A,329,1,983,i,p,s,s,2,4,25%,75%
sub6,3,A,337,1,756,c,m,r,s,2,2,25%,75%
sub6,3,A,338,0,1063,i,p,s,s,2,3,25%,75%
sub6,3,A,339,1,938,i,m,s,s,2,4,25%,75%
sub6,3,A,346,1,937,c,p,r,s,2,2,25%,75%
sub6,3,A,347,1,1015,i,m,s,s,2,3,25%,75%
sub6,3,A,348,1,969,i,p,s,s,2,4,25%,75%
sub6,3,A,355,1,1034,c,p,s,s,4,2,25%,75%
sub6,3,A,356,0,NA,i,p,r,s,4,3,25%,75%
sub6,3,A,357,1,1028,i,p,r,s,4,4,25%,75%
sub6,3,A,365,1,893,c,p,r,s,1,2,25%,75%
sub6,3,A,366,1,882,i,m,s,s,1,3,25%,75%
sub6,3,A,367,1,779,c,m,r,s,1,4,25%,75%
sub6,3,A,375,1,1067,c,p,r,s,1,2,25%,75%
sub6,3,A,376,1,1076,i,m,s,s,1,3,25%,75%
sub6,3,A,377,1,1099,c,m,r,s,1,4,25%,75%
sub6,3,A,385,1,1218,c,p,s,s,3,2,25%,75%
sub6,3,A,386,1,997,i,p,r,s,3,3,25%,75%
sub6,3,A,387,1,1040,c,m,s,s,3,4,25%,75%
sub6,3,A,395,1,925,c,p,r,s,2,2,25%,75%
sub6,3,A,396,1,933,i,m,s,s,2,3,25%,75%
sub6,3,A,397,1,994,i,p,s,s,2,4,25%,75%
sub6,3,A,405,0,1142,c,m,s,s,4,2,25%,75%
sub6,3,A,406,1,791,i,m,r,s,4,3,25%,75%
sub6,3,A,407,1,878,i,m,r,s,4,4,25%,75%
sub6,3,A,415,1,1033,c,p,r,s,1,2,25%,75%
sub6,3,A,416,1,1046,i,m,s,s,1,3,25%,75%
sub6,3,A,417,1,692,c,m,r,s,1,4,25%,75%
sub6,3,A,425,1,870,c,p,s,s,3,2,25%,75%
sub6,3,A,426,1,828,i,p,r,s,3,3,25%,75%
sub6,3,A,427,1,951,c,m,s,s,3,4,25%,75%
sub6,3,A,433,1,1072,c,p,s,s,3,2,25%,75%
sub6,3,A,434,1,901,i,p,r,s,3,3,25%,75%
sub6,3,A,435,1,994,c,m,s,s,3,4,25%,75%
sub6,3,A,443,1,1169,c,m,r,s,1,2,25%,75%
sub6,3,A,444,0,912,i,p,s,s,1,3,25%,75%
sub6,3,A,445,1,956,c,p,r,s,1,4,25%,75%
sub6,3,A,453,1,1151,c,m,s,s,3,2,25%,75%
sub6,3,A,454,1,864,i,m,r,s,3,3,25%,75%
sub6,3,A,455,1,1058,c,p,s,s,3,4,25%,75%
sub6,3,A,463,1,880,c,m,s,s,4,2,25%,75%
sub6,3,A,464,1,788,i,m,r,s,4,3,25%,75%
sub6,3,A,465,1,791,i,m,r,s,4,4,25%,75%
sub6,3,A,472,1,967,c,p,s,s,4,2,25%,75%
sub6,3,A,473,1,977,i,p,r,s,4,3,25%,75%
sub6,3,A,474,1,873,i,p,r,s,4,4,25%,75%
sub6,4,D,487,1,962,c,m,r,s,2,2,75%,25%
sub6,4,D,488,1,1019,i,p,s,s,2,3,75%,25%
sub6,4,D,489,1,972,i,m,s,s,2,4,75%,25%
sub6,4,D,497,1,988,c,p,r,s,2,2,75%,25%
sub6,4,D,498,1,1145,i,m,s,s,2,3,75%,25%
sub6,4,D,499,1,1140,i,p,s,s,2,4,75%,25%
sub6,4,D,507,1,911,c,p,r,s,2,2,75%,25%
sub6,4,D,508,0,1052,i,m,s,s,2,3,75%,25%
sub6,4,D,509,1,950,i,p,s,s,2,4,75%,25%
sub6,4,D,517,1,950,c,p,s,s,4,2,75%,25%
sub6,4,D,518,1,834,i,p,r,s,4,3,75%,25%
sub6,4,D,519,1,985,i,p,r,s,4,4,75%,25%
sub6,4,D,527,1,952,c,p,r,s,1,2,75%,25%
sub6,4,D,528,1,954,i,m,s,s,1,3,75%,25%
sub6,4,D,529,1,1004,c,m,r,s,1,4,75%,25%
sub6,4,D,537,1,846,c,p,r,s,1,2,75%,25%
sub6,4,D,538,1,897,i,m,s,s,1,3,75%,25%
sub6,4,D,539,1,879,c,m,r,s,1,4,75%,25%
sub6,4,D,547,1,916,c,m,s,s,3,2,75%,25%
sub6,4,D,548,1,798,i,m,r,s,3,3,75%,25%
sub6,4,D,549,1,903,c,p,s,s,3,4,75%,25%
sub6,4,D,556,1,873,c,p,r,s,2,2,75%,25%
sub6,4,D,557,1,1134,i,m,s,s,2,3,75%,25%
sub6,4,D,558,1,1014,i,p,s,s,2,4,75%,25%
sub6,4,D,565,1,906,c,p,s,s,4,2,75%,25%
sub6,4,D,566,1,1200,i,p,r,s,4,3,75%,25%
sub6,4,D,567,0,813,i,p,r,s,4,4,75%,25%
sub6,4,D,575,1,852,c,m,r,s,1,2,75%,25%
sub6,4,D,576,1,1257,i,p,s,s,1,3,75%,25%
sub6,4,D,577,1,992,c,p,r,s,1,4,75%,25%
sub6,4,D,585,1,905,c,p,s,s,3,2,75%,25%
sub6,4,D,586,0,903,i,p,r,s,3,3,75%,25%
sub6,4,D,587,1,1029,c,m,s,s,3,4,75%,25%
sub6,4,D,594,1,1038,c,m,s,s,3,2,75%,25%
sub6,4,D,595,1,986,i,m,r,s,3,3,75%,25%
sub6,4,D,596,1,840,c,p,s,s,3,4,75%,25%
sub6,4,D,604,1,809,c,p,r,s,1,2,75%,25%
sub6,4,D,605,1,843,i,m,s,s,1,3,75%,25%
sub6,4,D,606,1,882,c,m,r,s,1,4,75%,25%
sub6,4,D,613,1,946,c,m,s,s,3,2,75%,25%
sub6,4,D,614,1,774,i,m,r,s,3,3,75%,25%
sub6,4,D,615,1,929,c,p,s,s,3,4,75%,25%
sub6,4,D,623,1,955,c,m,s,s,4,2,75%,25%
sub6,4,D,624,1,780,i,m,r,s,4,3,75%,25%
sub6,4,D,625,1,947,i,m,r,s,4,4,75%,25%
sub6,4,D,633,1,821,c,m,s,s,4,2,75%,25%
sub6,4,D,634,1,869,i,m,r,s,4,3,75%,25%
sub6,4,D,635,1,1164,i,m,r,s,4,4,75%,25%
sub7,1,C,7,1,907,c,m,r,s,2,2,25%,25%
sub7,1,C,8,0,1036,i,p,s,s,2,3,25%,25%
sub7,1,C,9,0,1138,i,m,s,s,2,4,25%,25%
sub7,1,C,17,0,1122,c,p,s,s,4,2,25%,25%
sub7,1,C,18,1,962,i,p,r,s,4,3,25%,25%
sub7,1,C,19,0,890,i,p,r,s,4,4,25%,25%
sub7,1,C,27,1,914,c,p,r,s,2,2,25%,25%
sub7,1,C,28,0,1034,i,m,s,s,2,3,25%,25%
sub7,1,C,29,1,1291,i,p,s,s,2,4,25%,25%
sub7,1,C,37,1,1018,c,p,s,s,3,2,25%,25%
sub7,1,C,38,1,881,i,p,r,s,3,3,25%,25%
sub7,1,C,39,1,1089,c,m,s,s,3,4,25%,25%
sub7,1,C,46,1,968,c,m,s,s,4,2,25%,25%
sub7,1,C,47,0,1048,i,m,r,s,4,3,25%,25%
sub7,1,C,48,0,1024,i,m,r,s,4,4,25%,25%
sub7,1,C,56,0,1111,c,p,r,s,1,2,25%,25%
sub7,1,C,57,0,1105,i,m,s,s,1,3,25%,25%
sub7,1,C,58,1,912,c,m,r,s,1,4,25%,25%
sub7,1,C,66,1,821,c,m,r,s,2,2,25%,25%
sub7,1,C,67,1,1078,i,p,s,s,2,3,25%,25%
sub7,1,C,68,0,991,i,m,s,s,2,4,25%,25%
sub7,1,C,76,1,1229,c,m,s,s,3,2,25%,25%
sub7,1,C,77,0,1038,i,m,r,s,3,3,25%,25%
sub7,1,C,78,0,1022,c,p,s,s,3,4,25%,25%
sub7,1,C,85,1,1373,c,m,s,s,4,2,25%,25%
sub7,1,C,86,0,941,i,m,r,s,4,3,25%,25%
sub7,1,C,87,1,1236,i,m,r,s,4,4,25%,25%
sub7,1,C,95,1,1002,c,p,r,s,2,2,25%,25%
sub7,1,C,96,0,1142,i,m,s,s,2,3,25%,25%
sub7,1,C,97,0,1347,i,p,s,s,2,4,25%,25%
sub7,1,C,105,1,956,c,m,r,s,1,2,25%,25%
sub7,1,C,106,1,1124,i,p,s,s,1,3,25%,25%
sub7,1,C,107,0,965,c,p,r,s,1,4,25%,25%
sub7,1,C,115,1,1106,c,m,r,s,1,2,25%,25%
sub7,1,C,116,1,1417,i,p,s,s,1,3,25%,25%
sub7,1,C,117,1,1122,c,p,r,s,1,4,25%,25%
sub7,1,C,125,1,898,c,p,r,s,1,2,25%,25%
sub7,1,C,126,1,1259,i,m,s,s,1,3,25%,25%
sub7,1,C,127,1,858,c,m,r,s,1,4,25%,25%
sub7,1,C,134,1,1249,c,m,s,s,3,2,25%,25%
sub7,1,C,135,1,1000,i,m,r,s,3,3,25%,25%
sub7,1,C,136,0,961,c,p,s,s,3,4,25%,25%
sub7,1,C,144,0,897,c,m,s,s,3,2,25%,25%
sub7,1,C,145,1,985,i,m,r,s,3,3,25%,25%
sub7,1,C,146,1,1489,c,p,s,s,3,4,25%,25%
sub7,1,C,152,1,1171,c,m,s,s,4,2,25%,25%
sub7,1,C,153,0,1176,i,m,r,s,4,3,25%,25%
sub7,1,C,154,1,1208,i,m,r,s,4,4,25%,25%
sub7,2,D,165,1,839,c,p,r,s,2,2,75%,25%
sub7,2,D,166,0,942,i,m,s,s,2,3,75%,25%
sub7,2,D,167,1,1447,i,p,s,s,2,4,75%,25%
sub7,2,D,175,0,950,c,m,s,s,4,2,75%,25%
sub7,2,D,176,0,1453,i,m,r,s,4,3,75%,25%
sub7,2,D,177,0,1045,i,m,r,s,4,4,75%,25%
sub7,2,D,185,1,996,c,m,r,s,2,2,75%,25%
sub7,2,D,186,0,885,i,p,s,s,2,3,75%,25%
sub7,2,D,187,1,1253,i,m,s,s,2,4,75%,25%
sub7,2,D,195,1,1469,c,p,s,s,3,2,75%,25%
sub7,2,D,196,1,907,i,p,r,s,3,3,75%,25%
sub7,2,D,197,0,1060,c,m,s,s,3,4,75%,25%
sub7,2,D,205,1,971,c,m,s,s,4,2,75%,25%
sub7,2,D,206,1,1442,i,m,r,s,4,3,75%,25%
sub7,2,D,207,1,1178,i,m,r,s,4,4,75%,25%
sub7,2,D,215,1,986,c,m,r,s,1,2,75%,25%
sub7,2,D,216,1,977,i,p,s,s,1,3,75%,25%
sub7,2,D,217,1,1098,c,p,r,s,1,4,75%,25%
sub7,2,D,224,1,914,c,p,r,s,2,2,75%,25%
sub7,2,D,225,1,1001,i,m,s,s,2,3,75%,25%
sub7,2,D,226,0,914,i,p,s,s,2,4,75%,25%
sub7,2,D,234,1,944,c,m,s,s,3,2,75%,25%
sub7,2,D,235,0,946,i,m,r,s,3,3,75%,25%
sub7,2,D,236,1,1112,c,p,s,s,3,4,75%,25%
sub7,2,D,244,1,1096,c,p,s,s,4,2,75%,25%
sub7,2,D,245,1,1073,i,p,r,s,4,3,75%,25%
sub7,2,D,246,0,1465,i,p,r,s,4,4,75%,25%
sub7,2,D,254,1,1095,c,p,r,s,2,2,75%,25%
sub7,2,D,255,1,1297,i,m,s,s,2,3,75%,25%
sub7,2,D,256,1,1128,i,p,s,s,2,4,75%,25%
sub7,2,D,263,1,1270,c,m,r,s,1,2,75%,25%
sub7,2,D,264,0,1046,i,p,s,s,1,3,75%,25%
sub7,2,D,265,1,887,c,p,r,s,1,4,75%,25%
sub7,2,D,273,1,1253,c,p,r,s,1,2,75%,25%
sub7,2,D,274,0,NA,i,m,s,s,1,3,75%,25%
sub7,2,D,275,0,NA,c,m,r,s,1,4,75%,25%
sub7,2,D,283,1,1019,c,p,r,s,1,2,75%,25%
sub7,2,D,284,1,1116,i,m,s,s,1,3,75%,25%
sub7,2,D,285,1,1084,c,m,r,s,1,4,75%,25%
sub7,2,D,293,1,924,c,m,s,s,3,2,75%,25%
sub7,2,D,294,1,868,i,m,r,s,3,3,75%,25%
sub7,2,D,295,1,841,c,p,s,s,3,4,75%,25%
sub7,2,D,302,1,1004,c,p,s,s,3,2,75%,25%
sub7,2,D,303,1,1035,i,p,r,s,3,3,75%,25%
sub7,2,D,304,1,858,c,m,s,s,3,4,75%,25%
sub7,2,D,312,1,1323,c,p,s,s,4,2,75%,25%
sub7,2,D,313,1,986,i,p,r,s,4,3,75%,25%
sub7,2,D,314,1,906,i,p,r,s,4,4,75%,25%
sub7,3,B,327,1,1073,c,p,r,s,2,2,75%,75%
sub7,3,B,328,1,937,i,m,s,s,2,3,75%,75%
sub7,3,B,329,0,1073,i,p,s,s,2,4,75%,75%
sub7,3,B,337,1,857,c,p,s,s,4,2,75%,75%
sub7,3,B,338,1,1184,i,p,r,s,4,3,75%,75%
sub7,3,B,339,1,1032,i,p,r,s,4,4,75%,75%
sub7,3,B,347,1,1000,c,p,r,s,2,2,75%,75%
sub7,3,B,348,1,1176,i,m,s,s,2,3,75%,75%
sub7,3,B,349,1,1279,i,p,s,s,2,4,75%,75%
sub7,3,B,356,1,863,c,m,s,s,3,2,75%,75%
sub7,3,B,357,1,902,i,m,r,s,3,3,75%,75%
sub7,3,B,358,1,957,c,p,s,s,3,4,75%,75%
sub7,3,B,365,1,1214,c,m,s,s,4,2,75%,75%
sub7,3,B,366,1,1062,i,m,r,s,4,3,75%,75%
sub7,3,B,367,1,869,i,m,r,s,4,4,75%,75%
sub7,3,B,375,1,1309,c,m,r,s,1,2,75%,75%
sub7,3,B,376,1,925,i,p,s,s,1,3,75%,75%
sub7,3,B,377,1,1101,c,p,r,s,1,4,75%,75%
sub7,3,B,385,1,1165,c,p,r,s,2,2,75%,75%
sub7,3,B,386,1,939,i,m,s,s,2,3,75%,75%
sub7,3,B,387,1,893,i,p,s,s,2,4,75%,75%
sub7,3,B,394,1,1189,c,m,s,s,3,2,75%,75%
sub7,3,B,395,1,892,i,m,r,s,3,3,75%,75%
sub7,3,B,396,1,1000,c,p,s,s,3,4,75%,75%
sub7,3,B,403,1,882,c,p,s,s,4,2,75%,75%
sub7,3,B,404,1,1037,i,p,r,s,4,3,75%,75%
sub7,3,B,405,1,1019,i,p,r,s,4,4,75%,75%
sub7,3,B,412,1,953,c,m,r,s,2,2,75%,75%
sub7,3,B,413,0,869,i,p,s,s,2,3,75%,75%
sub7,3,B,414,1,889,i,m,s,s,2,4,75%,75%
sub7,3,B,422,1,1089,c,m,r,s,1,2,75%,75%
sub7,3,B,423,1,1161,i,p,s,s,1,3,75%,75%
sub7,3,B,424,0,1162,c,p,r,s,1,4,75%,75%
sub7,3,B,432,1,937,c,p,r,s,1,2,75%,75%
sub7,3,B,433,1,953,i,m,s,s,1,3,75%,75%
sub7,3,B,434,1,950,c,m,r,s,1,4,75%,75%
sub7,3,B,442,1,1393,c,m,r,s,1,2,75%,75%
sub7,3,B,443,1,864,i,p,s,s,1,3,75%,75%
sub7,3,B,444,0,1049,c,p,r,s,1,4,75%,75%
sub7,3,B,452,1,1135,c,m,s,s,3,2,75%,75%
sub7,3,B,453,1,1110,i,m,r,s,3,3,75%,75%
sub7,3,B,454,0,1007,c,p,s,s,3,4,75%,75%
sub7,3,B,462,1,1070,c,m,s,s,3,2,75%,75%
sub7,3,B,463,1,1001,i,m,r,s,3,3,75%,75%
sub7,3,B,464,1,1252,c,p,s,s,3,4,75%,75%
sub7,3,B,472,1,940,c,m,s,s,4,2,75%,75%
sub7,3,B,473,1,1076,i,m,r,s,4,3,75%,75%
sub7,3,B,474,1,1170,i,m,r,s,4,4,75%,75%
sub7,4,A,485,1,810,c,m,r,s,2,2,25%,75%
sub7,4,A,486,0,994,i,p,s,s,2,3,25%,75%
sub7,4,A,487,1,1283,i,m,s,s,2,4,25%,75%
sub7,4,A,495,1,859,c,m,s,s,4,2,25%,75%
sub7,4,A,496,1,866,i,m,r,s,4,3,25%,75%
sub7,4,A,497,1,857,i,m,r,s,4,4,25%,75%
sub7,4,A,504,1,1249,c,p,r,s,2,2,25%,75%
sub7,4,A,505,1,929,i,m,s,s,2,3,25%,75%
sub7,4,A,506,0,904,i,p,s,s,2,4,25%,75%
sub7,4,A,513,1,1271,c,p,s,s,3,2,25%,75%
sub7,4,A,514,1,897,i,p,r,s,3,3,25%,75%
sub7,4,A,515,1,1047,c,m,s,s,3,4,25%,75%
sub7,4,A,523,1,1415,c,m,s,s,4,2,25%,75%
sub7,4,A,524,1,1001,i,m,r,s,4,3,25%,75%
sub7,4,A,525,1,943,i,m,r,s,4,4,25%,75%
sub7,4,A,532,0,NA,c,p,r,s,1,2,25%,75%
sub7,4,A,533,1,1055,i,m,s,s,1,3,25%,75%
sub7,4,A,534,1,990,c,m,r,s,1,4,25%,75%
sub7,4,A,542,1,869,c,m,r,s,2,2,25%,75%
sub7,4,A,543,0,1005,i,p,s,s,2,3,25%,75%
sub7,4,A,544,1,871,i,m,s,s,2,4,25%,75%
sub7,4,A,552,1,932,c,m,s,s,3,2,25%,75%
sub7,4,A,553,1,859,i,m,r,s,3,3,25%,75%
sub7,4,A,554,1,1308,c,p,s,s,3,4,25%,75%
sub7,4,A,562,0,NA,c,p,s,s,4,2,25%,75%
sub7,4,A,563,1,915,i,p,r,s,4,3,25%,75%
sub7,4,A,564,1,898,i,p,r,s,4,4,25%,75%
sub7,4,A,572,0,994,c,p,r,s,2,2,25%,75%
sub7,4,A,573,1,1154,i,m,s,s,2,3,25%,75%
sub7,4,A,574,1,1139,i,p,s,s,2,4,25%,75%
sub7,4,A,582,0,NA,c,p,r,s,1,2,25%,75%
sub7,4,A,583,1,835,i,m,s,s,1,3,25%,75%
sub7,4,A,584,1,1087,c,m,r,s,1,4,25%,75%
sub7,4,A,592,1,1116,c,m,r,s,1,2,25%,75%
sub7,4,A,593,1,873,i,p,s,s,1,3,25%,75%
sub7,4,A,594,1,897,c,p,r,s,1,4,25%,75%
sub7,4,A,602,1,977,c,p,r,s,1,2,25%,75%
sub7,4,A,603,0,1328,i,m,s,s,1,3,25%,75%
sub7,4,A,604,1,953,c,m,r,s,1,4,25%,75%
sub7,4,A,612,1,1056,c,m,s,s,3,2,25%,75%
sub7,4,A,613,1,1039,i,m,r,s,3,3,25%,75%
sub7,4,A,614,1,1104,c,p,s,s,3,4,25%,75%
sub7,4,A,622,1,1087,c,m,s,s,3,2,25%,75%
sub7,4,A,623,1,854,i,m,r,s,3,3,25%,75%
sub7,4,A,624,1,855,c,p,s,s,3,4,25%,75%
sub7,4,A,632,1,1070,c,p,s,s,4,2,25%,75%
sub7,4,A,633,1,917,i,p,r,s,4,3,25%,75%
sub7,4,A,634,1,1150,i,p,r,s,4,4,25%,75%
sub8,1,D,7,1,1254,c,m,r,s,2,2,75%,25%
sub8,1,D,8,0,1107,i,p,s,s,2,3,75%,25%
sub8,1,D,9,1,988,i,m,s,s,2,4,75%,25%
sub8,1,D,17,0,NA,c,m,s,s,3,2,75%,25%
sub8,1,D,18,0,NA,i,m,r,s,3,3,75%,25%
sub8,1,D,19,1,1176,c,p,s,s,3,4,75%,25%
sub8,1,D,27,1,865,c,m,s,s,3,2,75%,25%
sub8,1,D,28,0,791,i,m,r,s,3,3,75%,25%
sub8,1,D,29,1,888,c,p,s,s,3,4,75%,25%
sub8,1,D,37,1,707,c,p,r,s,2,2,75%,25%
sub8,1,D,38,0,958,i,m,s,s,2,3,75%,25%
sub8,1,D,39,0,1095,i,p,s,s,2,4,75%,25%
sub8,1,D,47,0,1170,c,m,r,s,1,2,75%,25%
sub8,1,D,48,0,1006,i,p,s,s,1,3,75%,25%
sub8,1,D,49,1,968,c,p,r,s,1,4,75%,25%
sub8,1,D,57,1,827,c,p,r,s,2,2,75%,25%
sub8,1,D,58,1,1266,i,m,s,s,2,3,75%,25%
sub8,1,D,59,1,890,i,p,s,s,2,4,75%,25%
sub8,1,D,67,1,972,c,m,s,s,3,2,75%,25%
sub8,1,D,68,1,1054,i,m,r,s,3,3,75%,25%
sub8,1,D,69,1,991,c,p,s,s,3,4,75%,25%
sub8,1,D,77,1,976,c,m,r,s,1,2,75%,25%
sub8,1,D,78,0,1176,i,p,s,s,1,3,75%,25%
sub8,1,D,79,1,1139,c,p,r,s,1,4,75%,25%
sub8,1,D,87,1,1003,c,p,r,s,1,2,75%,25%
sub8,1,D,88,0,1269,i,m,s,s,1,3,75%,25%
sub8,1,D,89,1,967,c,m,r,s,1,4,75%,25%
sub8,1,D,97,1,915,c,m,s,s,3,2,75%,25%
sub8,1,D,98,1,948,i,m,r,s,3,3,75%,25%
sub8,1,D,99,1,920,c,p,s,s,3,4,75%,25%
sub8,1,D,107,1,921,c,p,s,s,4,2,75%,25%
sub8,1,D,108,1,852,i,p,r,s,4,3,75%,25%
sub8,1,D,109,1,1093,i,p,r,s,4,4,75%,25%
sub8,1,D,115,1,868,c,m,r,s,2,2,75%,25%
sub8,1,D,116,1,941,i,p,s,s,2,3,75%,25%
sub8,1,D,117,1,865,i,m,s,s,2,4,75%,25%
sub8,1,D,124,1,862,c,m,s,s,4,2,75%,25%
sub8,1,D,125,1,995,i,m,r,s,4,3,75%,25%
sub8,1,D,126,0,1127,i,m,r,s,4,4,75%,25%
sub8,1,D,134,1,1049,c,p,s,s,4,2,75%,25%
sub8,1,D,135,1,1184,i,p,r,s,4,3,75%,25%
sub8,1,D,136,1,1079,i,p,r,s,4,4,75%,25%
sub8,1,D,144,1,1040,c,p,s,s,4,2,75%,25%
sub8,1,D,145,0,915,i,p,r,s,4,3,75%,25%
sub8,1,D,146,1,1025,i,p,r,s,4,4,75%,25%
sub8,1,D,154,1,812,c,p,r,s,1,2,75%,25%
sub8,1,D,155,1,828,i,m,s,s,1,3,75%,25%
sub8,1,D,156,1,843,c,m,r,s,1,4,75%,25%
sub8,2,A,167,1,1142,c,p,r,s,2,2,25%,75%
sub8,2,A,168,1,1494,i,m,s,s,2,3,25%,75%
sub8,2,A,169,0,922,i,p,s,s,2,4,25%,75%
sub8,2,A,177,1,1136,c,m,s,s,3,2,25%,75%
sub8,2,A,178,0,898,i,m,r,s,3,3,25%,75%
sub8,2,A,179,1,816,c,p,s,s,3,4,25%,75%
sub8,2,A,186,1,900,c,p,s,s,3,2,25%,75%
sub8,2,A,187,1,839,i,p,r,s,3,3,25%,75%
sub8,2,A,188,1,1024,c,m,s,s,3,4,25%,75%
sub8,2,A,196,1,880,c,p,r,s,2,2,25%,75%
sub8,2,A,197,1,1000,i,m,s,s,2,3,25%,75%
sub8,2,A,198,1,833,i,p,s,s,2,4,25%,75%
sub8,2,A,206,1,978,c,m,r,s,1,2,25%,75%
sub8,2,A,207,1,1094,i,p,s,s,1,3,25%,75%
sub8,2,A,208,1,932,c,p,r,s,1,4,25%,75%
sub8,2,A,215,1,793,c,m,r,s,2,2,25%,75%
sub8,2,A,216,1,1059,i,p,s,s,2,3,25%,75%
sub8,2,A,217,1,1215,i,m,s,s,2,4,25%,75%
sub8,2,A,225,1,949,c,m,s,s,3,2,25%,75%
sub8,2,A,226,1,1030,i,m,r,s,3,3,25%,75%
sub8,2,A,227,1,953,c,p,s,s,3,4,25%,75%
sub8,2,A,235,1,922,c,m,r,s,1,2,25%,75%
sub8,2,A,236,1,939,i,p,s,s,1,3,25%,75%
sub8,2,A,237,1,968,c,p,r,s,1,4,25%,75%
sub8,2,A,245,1,880,c,m,r,s,1,2,25%,75%
sub8,2,A,246,1,807,i,p,s,s,1,3,25%,75%
sub8,2,A,247,1,1095,c,p,r,s,1,4,25%,75%
sub8,2,A,255,1,1016,c,p,s,s,3,2,25%,75%
sub8,2,A,256,1,909,i,p,r,s,3,3,25%,75%
sub8,2,A,257,1,1265,c,m,s,s,3,4,25%,75%
sub8,2,A,264,1,1034,c,m,s,s,4,2,25%,75%
sub8,2,A,265,1,855,i,m,r,s,4,3,25%,75%
sub8,2,A,266,1,955,i,m,r,s,4,4,25%,75%
sub8,2,A,274,1,880,c,m,r,s,2,2,25%,75%
sub8,2,A,275,1,928,i,p,s,s,2,3,25%,75%
sub8,2,A,276,1,1057,i,m,s,s,2,4,25%,75%
sub8,2,A,284,1,852,c,m,s,s,4,2,25%,75%
sub8,2,A,285,1,938,i,m,r,s,4,3,25%,75%
sub8,2,A,286,1,1006,i,m,r,s,4,4,25%,75%
sub8,2,A,294,0,953,c,m,s,s,4,2,25%,75%
sub8,2,A,295,1,928,i,m,r,s,4,3,25%,75%
sub8,2,A,296,1,833,i,m,r,s,4,4,25%,75%
sub8,2,A,303,1,885,c,p,s,s,4,2,25%,75%
sub8,2,A,304,1,812,i,p,r,s,4,3,25%,75%
sub8,2,A,305,1,807,i,p,r,s,4,4,25%,75%
sub8,2,A,312,0,1016,c,p,r,s,1,2,25%,75%
sub8,2,A,313,1,1106,i,m,s,s,1,3,25%,75%
sub8,2,A,314,1,748,c,m,r,s,1,4,25%,75%
sub8,3,C,326,1,854,c,p,r,s,2,2,25%,25%
sub8,3,C,327,1,1167,i,m,s,s,2,3,25%,25%
sub8,3,C,328,1,978,i,p,s,s,2,4,25%,25%
sub8,3,C,336,1,1155,c,m,s,s,3,2,25%,25%
sub8,3,C,337,1,1112,i,m,r,s,3,3,25%,25%
sub8,3,C,338,1,878,c,p,s,s,3,4,25%,25%
sub8,3,C,346,1,851,c,p,s,s,3,2,25%,25%
sub8,3,C,347,1,843,i,p,r,s,3,3,25%,25%
sub8,3,C,348,1,891,c,m,s,s,3,4,25%,25%
sub8,3,C,356,1,890,c,p,r,s,2,2,25%,25%
sub8,3,C,357,1,1041,i,m,s,s,2,3,25%,25%
sub8,3,C,358,1,1273,i,p,s,s,2,4,25%,25%
sub8,3,C,366,1,967,c,m,r,s,1,2,25%,25%
sub8,3,C,367,0,1076,i,p,s,s,1,3,25%,25%
sub8,3,C,368,1,984,c,p,r,s,1,4,25%,25%
sub8,3,C,376,1,1303,c,p,r,s,2,2,25%,25%
sub8,3,C,377,1,1294,i,m,s,s,2,3,25%,25%
sub8,3,C,378,1,1198,i,p,s,s,2,4,25%,25%
sub8,3,C,386,1,1086,c,p,s,s,3,2,25%,25%
sub8,3,C,387,1,1027,i,p,r,s,3,3,25%,25%
sub8,3,C,388,1,976,c,m,s,s,3,4,25%,25%
sub8,3,C,396,1,1174,c,p,r,s,1,2,25%,25%
sub8,3,C,397,1,954,i,m,s,s,1,3,25%,25%
sub8,3,C,398,1,742,c,m,r,s,1,4,25%,25%
sub8,3,C,406,1,1098,c,p,r,s,1,2,25%,25%
sub8,3,C,407,1,906,i,m,s,s,1,3,25%,25%
sub8,3,C,408,1,881,c,m,r,s,1,4,25%,25%
sub8,3,C,416,1,944,c,m,s,s,3,2,25%,25%
sub8,3,C,417,1,843,i,m,r,s,3,3,25%,25%
sub8,3,C,418,1,926,c,p,s,s,3,4,25%,25%
sub8,3,C,425,1,827,c,m,s,s,4,2,25%,25%
sub8,3,C,426,1,797,i,m,r,s,4,3,25%,25%
sub8,3,C,427,1,792,i,m,r,s,4,4,25%,25%
sub8,3,C,435,1,734,c,m,r,s,2,2,25%,25%
sub8,3,C,436,1,1029,i,p,s,s,2,3,25%,25%
sub8,3,C,437,1,810,i,m,s,s,2,4,25%,25%
sub8,3,C,443,1,1013,c,p,s,s,4,2,25%,25%
sub8,3,C,444,1,922,i,p,r,s,4,3,25%,25%
sub8,3,C,445,1,813,i,p,r,s,4,4,25%,25%
sub8,3,C,453,1,792,c,m,s,s,4,2,25%,25%
sub8,3,C,454,1,856,i,m,r,s,4,3,25%,25%
sub8,3,C,455,1,917,i,m,r,s,4,4,25%,25%
sub8,3,C,462,1,950,c,m,s,s,4,2,25%,25%
sub8,3,C,463,0,1078,i,m,r,s,4,3,25%,25%
sub8,3,C,464,1,1059,i,m,r,s,4,4,25%,25%
sub8,3,C,472,1,1006,c,p,r,s,1,2,25%,25%
sub8,3,C,473,1,833,i,m,s,s,1,3,25%,25%
sub8,3,C,474,1,926,c,m,r,s,1,4,25%,25%
sub8,4,B,487,0,856,c,m,r,s,2,2,75%,75%
sub8,4,B,488,1,827,i,p,s,s,2,3,75%,75%
sub8,4,B,489,1,867,i,m,s,s,2,4,75%,75%
sub8,4,B,496,1,805,c,m,s,s,3,2,75%,75%
sub8,4,B,497,1,905,i,m,r,s,3,3,75%,75%
sub8,4,B,498,1,813,c,p,s,s,3,4,75%,75%
sub8,4,B,506,1,977,c,m,s,s,3,2,75%,75%
sub8,4,B,507,1,860,i,m,r,s,3,3,75%,75%
sub8,4,B,508,1,905,c,p,s,s,3,4,75%,75%
sub8,4,B,516,1,904,c,p,r,s,2,2,75%,75%
sub8,4,B,517,1,893,i,m,s,s,2,3,75%,75%
sub8,4,B,518,1,1078,i,p,s,s,2,4,75%,75%
sub8,4,B,526,1,1075,c,p,r,s,1,2,75%,75%
sub8,4,B,527,0,984,i,m,s,s,1,3,75%,75%
sub8,4,B,528,1,922,c,m,r,s,1,4,75%,75%
sub8,4,B,535,1,812,c,m,r,s,2,2,75%,75%
sub8,4,B,536,1,927,i,p,s,s,2,3,75%,75%
sub8,4,B,537,1,860,i,m,s,s,2,4,75%,75%
sub8,4,B,544,1,932,c,m,s,s,3,2,75%,75%
sub8,4,B,545,1,849,i,m,r,s,3,3,75%,75%
sub8,4,B,546,1,877,c,p,s,s,3,4,75%,75%
sub8,4,B,554,1,1059,c,m,r,s,1,2,75%,75%
sub8,4,B,555,1,809,i,p,s,s,1,3,75%,75%
sub8,4,B,556,1,1261,c,p,r,s,1,4,75%,75%
sub8,4,B,564,1,1143,c,p,r,s,1,2,75%,75%
sub8,4,B,565,1,917,i,m,s,s,1,3,75%,75%
sub8,4,B,566,1,936,c,m,r,s,1,4,75%,75%
sub8,4,B,574,1,875,c,m,s,s,3,2,75%,75%
sub8,4,B,575,1,1090,i,m,r,s,3,3,75%,75%
sub8,4,B,576,1,1109,c,p,s,s,3,4,75%,75%
sub8,4,B,584,0,811,c,m,s,s,4,2,75%,75%
sub8,4,B,585,1,877,i,m,r,s,4,3,75%,75%
sub8,4,B,586,1,781,i,m,r,s,4,4,75%,75%
sub8,4,B,594,1,1497,c,p,r,s,2,2,75%,75%
sub8,4,B,595,1,940,i,m,s,s,2,3,75%,75%
sub8,4,B,596,1,865,i,p,s,s,2,4,75%,75%
sub8,4,B,604,1,896,c,p,s,s,4,2,75%,75%
sub8,4,B,605,1,915,i,p,r,s,4,3,75%,75%
sub8,4,B,606,1,865,i,p,r,s,4,4,75%,75%
sub8,4,B,614,1,829,c,m,s,s,4,2,75%,75%
sub8,4,B,615,1,669,i,m,r,s,4,3,75%,75%
sub8,4,B,616,1,1027,i,m,r,s,4,4,75%,75%
sub8,4,B,624,1,1079,c,p,s,s,4,2,75%,75%
sub8,4,B,625,1,872,i,p,r,s,4,3,75%,75%
sub8,4,B,626,1,886,i,p,r,s,4,4,75%,75%
sub8,4,B,633,1,1161,c,p,r,s,1,2,75%,75%
sub8,4,B,634,1,963,i,m,s,s,1,3,75%,75%
sub8,4,B,635,1,834,c,m,r,s,1,4,75%,75%
sub9,1,B,7,1,1124,c,p,s,s,3,2,75%,75%
sub9,1,B,8,1,1082,i,p,r,s,3,3,75%,75%
sub9,1,B,9,1,960,c,m,s,s,3,4,75%,75%
sub9,1,B,17,1,1389,c,m,s,s,3,2,75%,75%
sub9,1,B,18,0,1362,i,m,r,s,3,3,75%,75%
sub9,1,B,19,0,NA,c,p,s,s,3,4,75%,75%
sub9,1,B,27,0,997,c,p,s,s,4,2,75%,75%
sub9,1,B,28,1,1131,i,p,r,s,4,3,75%,75%
sub9,1,B,29,0,1082,i,p,r,s,4,4,75%,75%
sub9,1,B,36,1,852,c,m,r,s,1,2,75%,75%
sub9,1,B,37,1,826,i,p,s,s,1,3,75%,75%
sub9,1,B,38,1,1009,c,p,r,s,1,4,75%,75%
sub9,1,B,45,1,1011,c,m,r,s,2,2,75%,75%
sub9,1,B,46,1,961,i,p,s,s,2,3,75%,75%
sub9,1,B,47,0,949,i,m,s,s,2,4,75%,75%
sub9,1,B,55,1,883,c,m,r,s,2,2,75%,75%
sub9,1,B,56,1,1372,i,p,s,s,2,3,75%,75%
sub9,1,B,57,0,NA,i,m,s,s,2,4,75%,75%
sub9,1,B,65,1,1339,c,p,s,s,3,2,75%,75%
sub9,1,B,66,0,NA,i,p,r,s,3,3,75%,75%
sub9,1,B,67,1,1166,c,m,s,s,3,4,75%,75%
sub9,1,B,74,1,1164,c,m,r,s,1,2,75%,75%
sub9,1,B,75,0,NA,i,p,s,s,1,3,75%,75%
sub9,1,B,76,1,1308,c,p,r,s,1,4,75%,75%
sub9,1,B,84,1,1260,c,m,r,s,1,2,75%,75%
sub9,1,B,85,0,NA,i,p,s,s,1,3,75%,75%
sub9,1,B,86,1,1253,c,p,r,s,1,4,75%,75%
sub9,1,B,94,1,1005,c,m,r,s,2,2,75%,75%
sub9,1,B,95,1,917,i,p,s,s,2,3,75%,75%
sub9,1,B,96,0,1045,i,m,s,s,2,4,75%,75%
sub9,1,B,103,1,1170,c,p,s,s,4,2,75%,75%
sub9,1,B,104,1,1023,i,p,r,s,4,3,75%,75%
sub9,1,B,105,1,1244,i,p,r,s,4,4,75%,75%
sub9,1,B,113,1,943,c,m,s,s,4,2,75%,75%
sub9,1,B,114,0,934,i,m,r,s,4,3,75%,75%
sub9,1,B,115,1,1230,i,m,r,s,4,4,75%,75%
sub9,1,B,123,1,836,c,p,s,s,4,2,75%,75%
sub9,1,B,124,1,1126,i,p,r,s,4,3,75%,75%
sub9,1,B,125,1,1117,i,p,r,s,4,4,75%,75%
sub9,1,B,133,1,1006,c,p,s,s,3,2,75%,75%
sub9,1,B,134,1,1270,i,p,r,s,3,3,75%,75%
sub9,1,B,135,1,1022,c,m,s,s,3,4,75%,75%
sub9,1,B,143,1,1327,c,p,r,s,1,2,75%,75%
sub9,1,B,144,1,1063,i,m,s,s,1,3,75%,75%
sub9,1,B,145,1,1015,c,m,r,s,1,4,75%,75%
sub9,1,B,152,1,1143,c,m,r,s,2,2,75%,75%
sub9,1,B,153,1,984,i,p,s,s,2,3,75%,75%
sub9,1,B,154,1,1055,i,m,s,s,2,4,75%,75%
sub9,2,C,167,1,1023,c,m,s,s,3,2,25%,25%
sub9,2,C,168,1,961,i,m,r,s,3,3,25%,25%
sub9,2,C,169,1,1271,c,p,s,s,3,4,25%,25%
sub9,2,C,175,1,881,c,m,s,s,3,2,25%,25%
sub9,2,C,176,1,859,i,m,r,s,3,3,25%,25%
sub9,2,C,177,1,984,c,p,s,s,3,4,25%,25%
sub9,2,C,184,1,904,c,m,s,s,4,2,25%,25%
sub9,2,C,185,1,1105,i,m,r,s,4,3,25%,25%
sub9,2,C,186,1,1096,i,m,r,s,4,4,25%,25%
sub9,2,C,194,1,914,c,m,r,s,1,2,25%,25%
sub9,2,C,195,0,1008,i,p,s,s,1,3,25%,25%
sub9,2,C,196,1,976,c,p,r,s,1,4,25%,25%
sub9,2,C,203,1,935,c,m,r,s,2,2,25%,25%
sub9,2,C,204,1,1391,i,p,s,s,2,3,25%,25%
sub9,2,C,205,1,1279,i,m,s,s,2,4,25%,25%
sub9,2,C,213,1,1001,c,p,r,s,2,2,25%,25%
sub9,2,C,214,1,1313,i,m,s,s,2,3,25%,25%
sub9,2,C,215,1,1065,i,p,s,s,2,4,25%,25%
sub9,2,C,223,1,866,c,m,s,s,3,2,25%,25%
sub9,2,C,224,1,1378,i,m,r,s,3,3,25%,25%
sub9,2,C,225,1,993,c,p,s,s,3,4,25%,25%
sub9,2,C,233,1,842,c,m,r,s,1,2,25%,25%
sub9,2,C,234,1,1338,i,p,s,s,1,3,25%,25%
sub9,2,C,235,1,970,c,p,r,s,1,4,25%,25%
sub9,2,C,243,1,1019,c,p,r,s,1,2,25%,25%
sub9,2,C,244,1,1034,i,m,s,s,1,3,25%,25%
sub9,2,C,245,1,1034,c,m,r,s,1,4,25%,25%
sub9,2,C,253,1,1124,c,m,r,s,2,2,25%,25%
sub9,2,C,254,1,1019,i,p,s,s,2,3,25%,25%
sub9,2,C,255,1,818,i,m,s,s,2,4,25%,25%
sub9,2,C,263,1,757,c,m,s,s,4,2,25%,25%
sub9,2,C,264,1,890,i,m,r,s,4,3,25%,25%
sub9,2,C,265,1,1487,i,m,r,s,4,4,25%,25%
sub9,2,C,273,1,801,c,p,s,s,4,2,25%,25%
sub9,2,C,274,0,1009,i,p,r,s,4,3,25%,25%
sub9,2,C,275,0,255,i,p,r,s,4,4,25%,25%
sub9,2,C,283,1,1260,c,p,s,s,4,2,25%,25%
sub9,2,C,284,1,951,i,p,r,s,4,3,25%,25%
sub9,2,C,285,1,1099,i,p,r,s,4,4,25%,25%
sub9,2,C,293,1,919,c,p,s,s,3,2,25%,25%
sub9,2,C,294,1,1092,i,p,r,s,3,3,25%,25%
sub9,2,C,295,1,908,c,m,s,s,3,4,25%,25%
sub9,2,C,303,1,948,c,p,r,s,1,2,25%,25%
sub9,2,C,304,1,1333,i,m,s,s,1,3,25%,25%
sub9,2,C,305,1,956,c,m,r,s,1,4,25%,25%
sub9,2,C,313,1,805,c,p,r,s,2,2,25%,25%
sub9,2,C,314,1,815,i,m,s,s,2,3,25%,25%
sub9,2,C,315,0,1043,i,p,s,s,2,4,25%,25%
sub9,3,A,326,1,982,c,m,s,s,3,2,25%,75%
sub9,3,A,327,0,NA,i,m,r,s,3,3,25%,75%
sub9,3,A,328,1,1174,c,p,s,s,3,4,25%,75%
sub9,3,A,335,1,790,c,p,s,s,3,2,25%,75%
sub9,3,A,336,1,846,i,p,r,s,3,3,25%,75%
sub9,3,A,337,1,878,c,m,s,s,3,4,25%,75%
sub9,3,A,345,1,1070,c,m,s,s,4,2,25%,75%
sub9,3,A,346,1,998,i,m,r,s,4,3,25%,75%
sub9,3,A,347,1,1021,i,m,r,s,4,4,25%,75%
sub9,3,A,355,1,950,c,m,r,s,1,2,25%,75%
sub9,3,A,356,1,1191,i,p,s,s,1,3,25%,75%
sub9,3,A,357,1,1327,c,p,r,s,1,4,25%,75%
sub9,3,A,365,1,957,c,m,r,s,2,2,25%,75%
sub9,3,A,366,1,986,i,p,s,s,2,3,25%,75%
sub9,3,A,367,1,959,i,m,s,s,2,4,25%,75%
sub9,3,A,375,1,927,c,m,r,s,2,2,25%,75%
sub9,3,A,376,1,1113,i,p,s,s,2,3,25%,75%
sub9,3,A,377,1,863,i,m,s,s,2,4,25%,75%
sub9,3,A,385,1,928,c,p,s,s,3,2,25%,75%
sub9,3,A,386,1,936,i,p,r,s,3,3,25%,75%
sub9,3,A,387,1,840,c,m,s,s,3,4,25%,75%
sub9,3,A,395,1,1079,c,m,r,s,1,2,25%,75%
sub9,3,A,396,1,1008,i,p,s,s,1,3,25%,75%
sub9,3,A,397,1,912,c,p,r,s,1,4,25%,75%
sub9,3,A,404,1,1017,c,p,r,s,1,2,25%,75%
sub9,3,A,405,1,1007,i,m,s,s,1,3,25%,75%
sub9,3,A,406,1,897,c,m,r,s,1,4,25%,75%
sub9,3,A,412,1,720,c,m,r,s,2,2,25%,75%
sub9,3,A,413,1,1272,i,p,s,s,2,3,25%,75%
sub9,3,A,414,0,961,i,m,s,s,2,4,25%,75%
sub9,3,A,422,1,907,c,m,s,s,4,2,25%,75%
sub9,3,A,423,1,969,i,m,r,s,4,3,25%,75%
sub9,3,A,424,1,938,i,m,r,s,4,4,25%,75%
sub9,3,A,432,1,903,c,p,s,s,4,2,25%,75%
sub9,3,A,433,1,1122,i,p,r,s,4,3,25%,75%
sub9,3,A,434,1,880,i,p,r,s,4,4,25%,75%
sub9,3,A,442,1,1321,c,p,s,s,4,2,25%,75%
sub9,3,A,443,1,897,i,p,r,s,4,3,25%,75%
sub9,3,A,444,1,954,i,p,r,s,4,4,25%,75%
sub9,3,A,452,1,1234,c,p,s,s,3,2,25%,75%
sub9,3,A,453,1,970,i,p,r,s,3,3,25%,75%
sub9,3,A,454,1,1185,c,m,s,s,3,4,25%,75%
sub9,3,A,462,1,1119,c,p,r,s,1,2,25%,75%
sub9,3,A,463,1,1121,i,m,s,s,1,3,25%,75%
sub9,3,A,464,1,1066,c,m,r,s,1,4,25%,75%
sub9,3,A,472,1,1028,c,m,r,s,2,2,25%,75%
sub9,3,A,473,1,1267,i,p,s,s,2,3,25%,75%
sub9,3,A,474,1,949,i,m,s,s,2,4,25%,75%
sub9,4,D,487,1,1042,c,m,s,s,3,2,75%,25%
sub9,4,D,488,1,995,i,m,r,s,3,3,75%,25%
sub9,4,D,489,1,803,c,p,s,s,3,4,75%,25%
sub9,4,D,497,1,933,c,p,s,s,3,2,75%,25%
sub9,4,D,498,1,1005,i,p,r,s,3,3,75%,25%
sub9,4,D,499,1,820,c,m,s,s,3,4,75%,25%
sub9,4,D,506,1,1020,c,p,s,s,4,2,75%,25%
sub9,4,D,507,1,1090,i,p,r,s,4,3,75%,25%
sub9,4,D,508,1,964,i,p,r,s,4,4,75%,25%
sub9,4,D,515,1,877,c,p,r,s,1,2,75%,25%
sub9,4,D,516,1,989,i,m,s,s,1,3,75%,25%
sub9,4,D,517,1,917,c,m,r,s,1,4,75%,25%
sub9,4,D,525,1,1005,c,p,r,s,2,2,75%,25%
sub9,4,D,526,1,1190,i,m,s,s,2,3,75%,25%
sub9,4,D,527,1,1081,i,p,s,s,2,4,75%,25%
sub9,4,D,535,1,757,c,m,r,s,2,2,75%,25%
sub9,4,D,536,1,1028,i,p,s,s,2,3,75%,25%
sub9,4,D,537,1,1047,i,m,s,s,2,4,75%,25%
sub9,4,D,544,1,968,c,p,s,s,3,2,75%,25%
sub9,4,D,545,1,989,i,p,r,s,3,3,75%,25%
sub9,4,D,546,1,892,c,m,s,s,3,4,75%,25%
sub9,4,D,554,1,869,c,p,r,s,1,2,75%,25%
sub9,4,D,555,0,1069,i,m,s,s,1,3,75%,25%
sub9,4,D,556,1,901,c,m,r,s,1,4,75%,25%
sub9,4,D,564,1,815,c,p,r,s,1,2,75%,25%
sub9,4,D,565,1,776,i,m,s,s,1,3,75%,25%
sub9,4,D,566,1,894,c,m,r,s,1,4,75%,25%
sub9,4,D,574,1,1008,c,p,r,s,2,2,75%,25%
sub9,4,D,575,1,870,i,m,s,s,2,3,75%,25%
sub9,4,D,576,1,1216,i,p,s,s,2,4,75%,25%
sub9,4,D,582,1,887,c,p,s,s,4,2,75%,25%
sub9,4,D,583,1,1439,i,p,r,s,4,3,75%,25%
sub9,4,D,584,1,1008,i,p,r,s,4,4,75%,25%
sub9,4,D,592,1,760,c,p,s,s,4,2,75%,25%
sub9,4,D,593,1,1056,i,p,r,s,4,3,75%,25%
sub9,4,D,594,1,1127,i,p,r,s,4,4,75%,25%
sub9,4,D,602,1,1021,c,m,s,s,4,2,75%,25%
sub9,4,D,603,1,1073,i,m,r,s,4,3,75%,25%
sub9,4,D,604,1,1102,i,m,r,s,4,4,75%,25%
sub9,4,D,612,1,1472,c,m,s,s,3,2,75%,25%
sub9,4,D,613,1,1105,i,m,r,s,3,3,75%,25%
sub9,4,D,614,1,1074,c,p,s,s,3,4,75%,25%
sub9,4,D,622,1,864,c,m,r,s,1,2,75%,25%
sub9,4,D,623,1,1041,i,p,s,s,1,3,75%,25%
sub9,4,D,624,1,839,c,p,r,s,1,4,75%,25%
sub9,4,D,632,1,857,c,p,r,s,2,2,75%,25%
sub9,4,D,633,1,1056,i,m,s,s,2,3,75%,25%
sub9,4,D,634,1,1089,i,p,s,s,2,4,75%,25%
sub10,1,B,7,1,1054,c,p,s,s,3,2,75%,75%
sub10,1,B,8,1,925,i,p,r,s,3,3,75%,75%
sub10,1,B,9,1,787,c,m,s,s,3,4,75%,75%
sub10,1,B,17,1,985,c,m,s,s,4,2,75%,75%
sub10,1,B,18,1,1034,i,m,r,s,4,3,75%,75%
sub10,1,B,19,1,888,i,m,r,s,4,4,75%,75%
sub10,1,B,27,1,873,c,m,s,s,3,2,75%,75%
sub10,1,B,28,1,989,i,m,r,s,3,3,75%,75%
sub10,1,B,29,1,1311,c,p,s,s,3,4,75%,75%
sub10,1,B,37,0,1130,c,p,s,s,3,2,75%,75%
sub10,1,B,38,0,1048,i,p,r,s,3,3,75%,75%
sub10,1,B,39,1,1003,c,m,s,s,3,4,75%,75%
sub10,1,B,47,1,793,c,m,s,s,3,2,75%,75%
sub10,1,B,48,1,849,i,m,r,s,3,3,75%,75%
sub10,1,B,49,0,1275,c,p,s,s,3,4,75%,75%
sub10,1,B,57,0,883,c,p,s,s,4,2,75%,75%
sub10,1,B,58,1,1109,i,p,r,s,4,3,75%,75%
sub10,1,B,59,1,1062,i,p,r,s,4,4,75%,75%
sub10,1,B,67,1,982,c,m,r,s,2,2,75%,75%
sub10,1,B,68,1,1248,i,p,s,s,2,3,75%,75%
sub10,1,B,69,1,897,i,m,s,s,2,4,75%,75%
sub10,1,B,76,1,1007,c,p,r,s,1,2,75%,75%
sub10,1,B,77,1,772,i,m,s,s,1,3,75%,75%
sub10,1,B,78,1,913,c,m,r,s,1,4,75%,75%
sub10,1,B,86,1,976,c,m,s,s,4,2,75%,75%
sub10,1,B,87,1,549,i,m,r,s,4,3,75%,75%
sub10,1,B,88,1,1053,i,m,r,s,4,4,75%,75%
sub10,1,B,96,1,1343,c,m,r,s,2,2,75%,75%
sub10,1,B,97,0,1485,i,p,s,s,2,3,75%,75%
sub10,1,B,98,1,1003,i,m,s,s,2,4,75%,75%
sub10,1,B,105,1,619,c,m,r,s,2,2,75%,75%
sub10,1,B,106,1,866,i,p,s,s,2,3,75%,75%
sub10,1,B,107,1,976,i,m,s,s,2,4,75%,75%
sub10,1,B,115,1,1202,c,p,s,s,4,2,75%,75%
sub10,1,B,116,1,631,i,p,r,s,4,3,75%,75%
sub10,1,B,117,1,758,i,p,r,s,4,4,75%,75%
sub10,1,B,123,1,1035,c,p,r,s,2,2,75%,75%
sub10,1,B,124,1,853,i,m,s,s,2,3,75%,75%
sub10,1,B,125,1,802,i,p,s,s,2,4,75%,75%
sub10,1,B,133,1,921,c,m,r,s,1,2,75%,75%
sub10,1,B,134,1,1251,i,p,s,s,1,3,75%,75%
sub10,1,B,135,1,1087,c,p,r,s,1,4,75%,75%
sub10,1,B,143,1,1009,c,m,r,s,1,2,75%,75%
sub10,1,B,144,1,1417,i,p,s,s,1,3,75%,75%
sub10,1,B,145,1,790,c,p,r,s,1,4,75%,75%
sub10,1,B,153,1,777,c,p,r,s,1,2,75%,75%
sub10,1,B,154,1,1099,i,m,s,s,1,3,75%,75%
sub10,1,B,155,1,1463,c,m,r,s,1,4,75%,75%
sub10,2,C,166,1,937,c,m,s,s,3,2,25%,25%
sub10,2,C,167,1,586,i,m,r,s,3,3,25%,25%
sub10,2,C,168,1,825,c,p,s,s,3,4,25%,25%
sub10,2,C,176,1,732,c,m,s,s,4,2,25%,25%
sub10,2,C,177,1,1178,i,m,r,s,4,3,25%,25%
sub10,2,C,178,1,714,i,m,r,s,4,4,25%,25%
sub10,2,C,185,1,876,c,m,s,s,3,2,25%,25%
sub10,2,C,186,1,624,i,m,r,s,3,3,25%,25%
sub10,2,C,187,1,938,c,p,s,s,3,4,25%,25%
sub10,2,C,195,1,1047,c,p,s,s,3,2,25%,25%
sub10,2,C,196,1,630,i,p,r,s,3,3,25%,25%
sub10,2,C,197,1,891,c,m,s,s,3,4,25%,25%
sub10,2,C,205,1,849,c,m,s,s,3,2,25%,25%
sub10,2,C,206,1,1012,i,m,r,s,3,3,25%,25%
sub10,2,C,207,1,1155,c,p,s,s,3,4,25%,25%
sub10,2,C,215,1,875,c,p,s,s,4,2,25%,25%
sub10,2,C,216,1,771,i,p,r,s,4,3,25%,25%
sub10,2,C,217,1,729,i,p,r,s,4,4,25%,25%
sub10,2,C,225,1,544,c,m,r,s,2,2,25%,25%
sub10,2,C,226,1,1205,i,p,s,s,2,3,25%,25%
sub10,2,C,227,0,627,i,m,s,s,2,4,25%,25%
sub10,2,C,234,1,526,c,m,r,s,1,2,25%,25%
sub10,2,C,235,1,841,i,p,s,s,1,3,25%,25%
sub10,2,C,236,1,1376,c,p,r,s,1,4,25%,25%
sub10,2,C,243,1,898,c,p,s,s,4,2,25%,25%
sub10,2,C,244,1,1181,i,p,r,s,4,3,25%,25%
sub10,2,C,245,0,649,i,p,r,s,4,4,25%,25%
sub10,2,C,253,1,959,c,p,r,s,2,2,25%,25%
sub10,2,C,254,1,975,i,m,s,s,2,3,25%,25%
sub10,2,C,255,0,1221,i,p,s,s,2,4,25%,25%
sub10,2,C,262,1,603,c,m,r,s,2,2,25%,25%
sub10,2,C,263,1,968,i,p,s,s,2,3,25%,25%
sub10,2,C,264,1,962,i,m,s,s,2,4,25%,25%
sub10,2,C,272,1,685,c,m,s,s,4,2,25%,25%
sub10,2,C,273,1,739,i,m,r,s,4,3,25%,25%
sub10,2,C,274,1,605,i,m,r,s,4,4,25%,25%
sub10,2,C,282,1,524,c,p,r,s,2,2,25%,25%
sub10,2,C,283,1,1374,i,m,s,s,2,3,25%,25%
sub10,2,C,284,1,1295,i,p,s,s,2,4,25%,25%
sub10,2,C,292,1,1090,c,m,r,s,1,2,25%,25%
sub10,2,C,293,1,1041,i,p,s,s,1,3,25%,25%
sub10,2,C,294,1,627,c,p,r,s,1,4,25%,25%
sub10,2,C,302,1,632,c,m,r,s,1,2,25%,25%
sub10,2,C,303,1,1016,i,p,s,s,1,3,25%,25%
sub10,2,C,304,1,768,c,p,r,s,1,4,25%,25%
sub10,2,C,312,1,714,c,m,r,s,1,2,25%,25%
sub10,2,C,313,1,1091,i,p,s,s,1,3,25%,25%
sub10,2,C,314,1,600,c,p,r,s,1,4,25%,25%
sub10,3,A,326,1,842,c,m,s,s,3,2,25%,75%
sub10,3,A,327,1,491,i,m,r,s,3,3,25%,75%
sub10,3,A,328,0,986,c,p,s,s,3,4,25%,75%
sub10,3,A,336,1,628,c,m,s,s,4,2,25%,75%
sub10,3,A,337,1,526,i,m,r,s,4,3,25%,75%
sub10,3,A,338,1,565,i,m,r,s,4,4,25%,75%
sub10,3,A,346,0,1065,c,p,s,s,3,2,25%,75%
sub10,3,A,347,1,653,i,p,r,s,3,3,25%,75%
sub10,3,A,348,1,750,c,m,s,s,3,4,25%,75%
sub10,3,A,356,1,1293,c,p,s,s,3,2,25%,75%
sub10,3,A,357,1,670,i,p,r,s,3,3,25%,75%
sub10,3,A,358,1,794,c,m,s,s,3,4,25%,75%
sub10,3,A,366,1,858,c,m,s,s,3,2,25%,75%
sub10,3,A,367,1,1257,i,m,r,s,3,3,25%,75%
sub10,3,A,368,1,868,c,p,s,s,3,4,25%,75%
sub10,3,A,376,0,1261,c,p,s,s,4,2,25%,75%
sub10,3,A,377,1,879,i,p,r,s,4,3,25%,75%
sub10,3,A,378,1,1010,i,p,r,s,4,4,25%,75%
sub10,3,A,386,1,640,c,p,r,s,2,2,25%,75%
sub10,3,A,387,1,710,i,m,s,s,2,3,25%,75%
sub10,3,A,388,1,906,i,p,s,s,2,4,25%,75%
sub10,3,A,396,0,1194,c,m,r,s,1,2,25%,75%
sub10,3,A,397,1,1001,i,p,s,s,1,3,25%,75%
sub10,3,A,398,1,715,c,p,r,s,1,4,25%,75%
sub10,3,A,406,0,NA,c,p,s,s,4,2,25%,75%
sub10,3,A,407,1,635,i,p,r,s,4,3,25%,75%
sub10,3,A,408,1,569,i,p,r,s,4,4,25%,75%
sub10,3,A,414,1,981,c,p,r,s,2,2,25%,75%
sub10,3,A,415,1,1022,i,m,s,s,2,3,25%,75%
sub10,3,A,416,1,1241,i,p,s,s,2,4,25%,75%
sub10,3,A,424,1,915,c,m,r,s,2,2,25%,75%
sub10,3,A,425,1,1324,i,p,s,s,2,3,25%,75%
sub10,3,A,426,1,919,i,m,s,s,2,4,25%,75%
sub10,3,A,434,1,634,c,m,s,s,4,2,25%,75%
sub10,3,A,435,1,592,i,m,r,s,4,3,25%,75%
sub10,3,A,436,1,608,i,m,r,s,4,4,25%,75%
sub10,3,A,444,1,663,c,p,r,s,2,2,25%,75%
sub10,3,A,445,1,624,i,m,s,s,2,3,25%,75%
sub10,3,A,446,1,1093,i,p,s,s,2,4,25%,75%
sub10,3,A,453,1,715,c,p,r,s,1,2,25%,75%
sub10,3,A,454,1,593,i,m,s,s,1,3,25%,75%
sub10,3,A,455,1,807,c,m,r,s,1,4,25%,75%
sub10,3,A,463,1,773,c,m,r,s,1,2,25%,75%
sub10,3,A,464,1,828,i,p,s,s,1,3,25%,75%
sub10,3,A,465,1,837,c,p,r,s,1,4,25%,75%
sub10,3,A,472,1,1074,c,p,r,s,1,2,25%,75%
sub10,3,A,473,0,766,i,m,s,s,1,3,25%,75%
sub10,3,A,474,1,643,c,m,r,s,1,4,25%,75%
sub10,4,D,487,1,891,c,p,s,s,3,2,75%,25%
sub10,4,D,488,1,768,i,p,r,s,3,3,75%,25%
sub10,4,D,489,1,827,c,m,s,s,3,4,75%,25%
sub10,4,D,497,1,802,c,p,s,s,4,2,75%,25%
sub10,4,D,498,1,1024,i,p,r,s,4,3,75%,25%
sub10,4,D,499,1,1276,i,p,r,s,4,4,75%,25%
sub10,4,D,507,1,1188,c,p,s,s,3,2,75%,25%
sub10,4,D,508,1,1002,i,p,r,s,3,3,75%,25%
sub10,4,D,509,1,1155,c,m,s,s,3,4,75%,25%
sub10,4,D,517,1,920,c,m,s,s,3,2,75%,25%
sub10,4,D,518,0,1100,i,m,r,s,3,3,75%,25%
sub10,4,D,519,1,854,c,p,s,s,3,4,75%,25%
sub10,4,D,526,1,739,c,p,s,s,3,2,75%,25%
sub10,4,D,527,1,1096,i,p,r,s,3,3,75%,25%
sub10,4,D,528,1,677,c,m,s,s,3,4,75%,25%
sub10,4,D,536,1,1069,c,p,s,s,4,2,75%,25%
sub10,4,D,537,1,740,i,p,r,s,4,3,75%,25%
sub10,4,D,538,1,1065,i,p,r,s,4,4,75%,25%
sub10,4,D,546,1,690,c,p,r,s,2,2,75%,25%
sub10,4,D,547,1,986,i,m,s,s,2,3,75%,25%
sub10,4,D,548,0,894,i,p,s,s,2,4,75%,25%
sub10,4,D,556,1,572,c,m,r,s,1,2,75%,25%
sub10,4,D,557,0,1285,i,p,s,s,1,3,75%,25%
sub10,4,D,558,1,712,c,p,r,s,1,4,75%,25%
sub10,4,D,566,1,751,c,m,s,s,4,2,75%,25%
sub10,4,D,567,1,722,i,m,r,s,4,3,75%,25%
sub10,4,D,568,1,762,i,m,r,s,4,4,75%,25%
sub10,4,D,576,1,956,c,m,r,s,2,2,75%,25%
sub10,4,D,577,0,1218,i,p,s,s,2,3,75%,25%
sub10,4,D,578,1,662,i,m,s,s,2,4,75%,25%
sub10,4,D,584,1,1099,c,p,r,s,2,2,75%,25%
sub10,4,D,585,0,1271,i,m,s,s,2,3,75%,25%
sub10,4,D,586,0,766,i,p,s,s,2,4,75%,25%
sub10,4,D,593,1,683,c,p,s,s,4,2,75%,25%
sub10,4,D,594,1,1162,i,p,r,s,4,3,75%,25%
sub10,4,D,595,1,865,i,p,r,s,4,4,75%,25%
sub10,4,D,602,1,1133,c,p,r,s,2,2,75%,25%
sub10,4,D,603,1,682,i,m,s,s,2,3,75%,25%
sub10,4,D,604,1,1072,i,p,s,s,2,4,75%,25%
sub10,4,D,612,1,775,c,m,r,s,1,2,75%,25%
sub10,4,D,613,1,1407,i,p,s,s,1,3,75%,25%
sub10,4,D,614,1,1066,c,p,r,s,1,4,75%,25%
sub10,4,D,622,1,797,c,m,r,s,1,2,75%,25%
sub10,4,D,623,1,773,i,p,s,s,1,3,75%,25%
sub10,4,D,624,1,734,c,p,r,s,1,4,75%,25%
sub10,4,D,632,0,638,c,m,r,s,1,2,75%,25%
sub10,4,D,633,1,687,i,p,s,s,1,3,75%,25%
sub10,4,D,634,1,1015,c,p,r,s,1,4,75%,25%
sub11,1,C,7,1,637,c,m,r,s,2,2,25%,25%
sub11,1,C,8,1,951,i,p,s,s,2,3,25%,25%
sub11,1,C,9,1,537,i,m,s,s,2,4,25%,25%
sub11,1,C,17,1,553,c,p,s,s,4,2,25%,25%
sub11,1,C,18,1,619,i,p,r,s,4,3,25%,25%
sub11,1,C,19,1,608,i,p,r,s,4,4,25%,25%
sub11,1,C,26,0,981,c,m,s,s,3,2,25%,25%
sub11,1,C,27,0,866,i,m,r,s,3,3,25%,25%
sub11,1,C,28,1,864,c,p,s,s,3,4,25%,25%
sub11,1,C,36,1,668,c,m,r,s,2,2,25%,25%
sub11,1,C,37,1,971,i,p,s,s,2,3,25%,25%
sub11,1,C,38,1,1335,i,m,s,s,2,4,25%,25%
sub11,1,C,46,0,736,c,p,s,s,4,2,25%,25%
sub11,1,C,47,1,887,i,p,r,s,4,3,25%,25%
sub11,1,C,48,1,518,i,p,r,s,4,4,25%,25%
sub11,1,C,56,1,851,c,m,s,s,3,2,25%,25%
sub11,1,C,57,1,541,i,m,r,s,3,3,25%,25%
sub11,1,C,58,0,898,c,p,s,s,3,4,25%,25%
sub11,1,C,66,1,566,c,m,r,s,1,2,25%,25%
sub11,1,C,67,1,690,i,p,s,s,1,3,25%,25%
sub11,1,C,68,1,785,c,p,r,s,1,4,25%,25%
sub11,1,C,75,1,603,c,m,s,s,3,2,25%,25%
sub11,1,C,76,1,838,i,m,r,s,3,3,25%,25%
sub11,1,C,77,1,728,c,p,s,s,3,4,25%,25%
sub11,1,C,85,1,473,c,m,r,s,2,2,25%,25%
sub11,1,C,86,1,940,i,p,s,s,2,3,25%,25%
sub11,1,C,87,1,785,i,m,s,s,2,4,25%,25%
sub11,1,C,94,1,750,c,m,s,s,3,2,25%,25%
sub11,1,C,95,1,502,i,m,r,s,3,3,25%,25%
sub11,1,C,96,1,872,c,p,s,s,3,4,25%,25%
sub11,1,C,104,1,698,c,p,s,s,4,2,25%,25%
sub11,1,C,105,1,595,i,p,r,s,4,3,25%,25%
sub11,1,C,106,1,637,i,p,r,s,4,4,25%,25%
sub11,1,C,113,1,479,c,m,r,s,1,2,25%,25%
sub11,1,C,114,0,585,i,p,s,s,1,3,25%,25%
sub11,1,C,115,0,898,c,p,r,s,1,4,25%,25%
sub11,1,C,123,1,575,c,m,r,s,2,2,25%,25%
sub11,1,C,124,1,905,i,p,s,s,2,3,25%,25%
sub11,1,C,125,1,896,i,m,s,s,2,4,25%,25%
sub11,1,C,133,0,783,c,m,r,s,1,2,25%,25%
sub11,1,C,134,0,1140,i,p,s,s,1,3,25%,25%
sub11,1,C,135,1,617,c,p,r,s,1,4,25%,25%
sub11,1,C,142,1,756,c,m,s,s,4,2,25%,25%
sub11,1,C,143,1,647,i,m,r,s,4,3,25%,25%
sub11,1,C,144,1,674,i,m,r,s,4,4,25%,25%
sub11,1,C,152,1,575,c,p,r,s,1,2,25%,25%
sub11,1,C,153,1,812,i,m,s,s,1,3,25%,25%
sub11,1,C,154,1,547,c,m,r,s,1,4,25%,25%
sub11,2,D,167,1,577,c,m,r,s,2,2,75%,25%
sub11,2,D,168,1,808,i,p,s,s,2,3,75%,25%
sub11,2,D,169,1,888,i,m,s,s,2,4,75%,25%
sub11,2,D,175,1,780,c,p,s,s,4,2,75%,25%
sub11,2,D,176,1,732,i,p,r,s,4,3,75%,25%
sub11,2,D,177,1,759,i,p,r,s,4,4,75%,25%
sub11,2,D,185,1,657,c,m,s,s,3,2,75%,25%
sub11,2,D,186,1,555,i,m,r,s,3,3,75%,25%
sub11,2,D,187,1,790,c,p,s,s,3,4,75%,25%
sub11,2,D,195,1,576,c,m,r,s,2,2,75%,25%
sub11,2,D,196,1,1064,i,p,s,s,2,3,75%,25%
sub11,2,D,197,1,834,i,m,s,s,2,4,75%,25%
sub11,2,D,205,1,657,c,m,s,s,4,2,75%,25%
sub11,2,D,206,1,802,i,m,r,s,4,3,75%,25%
sub11,2,D,207,1,775,i,m,r,s,4,4,75%,25%
sub11,2,D,215,1,800,c,m,s,s,3,2,75%,25%
sub11,2,D,216,1,576,i,m,r,s,3,3,75%,25%
sub11,2,D,217,1,722,c,p,s,s,3,4,75%,25%
sub11,2,D,224,1,536,c,m,r,s,1,2,75%,25%
sub11,2,D,225,1,858,i,p,s,s,1,3,75%,25%
sub11,2,D,226,1,631,c,p,r,s,1,4,75%,25%
sub11,2,D,234,1,612,c,m,s,s,3,2,75%,25%
sub11,2,D,235,1,826,i,m,r,s,3,3,75%,25%
sub11,2,D,236,1,602,c,p,s,s,3,4,75%,25%
sub11,2,D,244,1,743,c,p,r,s,2,2,75%,25%
sub11,2,D,245,1,649,i,m,s,s,2,3,75%,25%
sub11,2,D,246,1,973,i,p,s,s,2,4,75%,25%
sub11,2,D,254,0,770,c,p,s,s,3,2,75%,25%
sub11,2,D,255,1,658,i,p,r,s,3,3,75%,25%
sub11,2,D,256,1,600,c,m,s,s,3,4,75%,25%
sub11,2,D,264,1,874,c,p,s,s,4,2,75%,25%
sub11,2,D,265,1,574,i,p,r,s,4,3,75%,25%
sub11,2,D,266,0,777,i,p,r,s,4,4,75%,25%
sub11,2,D,274,1,504,c,p,r,s,1,2,75%,25%
sub11,2,D,275,1,1053,i,m,s,s,1,3,75%,25%
sub11,2,D,276,1,839,c,m,r,s,1,4,75%,25%
sub11,2,D,283,1,591,c,p,r,s,2,2,75%,25%
sub11,2,D,284,1,779,i,m,s,s,2,3,75%,25%
sub11,2,D,285,0,878,i,p,s,s,2,4,75%,25%
sub11,2,D,293,1,952,c,m,r,s,1,2,75%,25%
sub11,2,D,294,1,828,i,p,s,s,1,3,75%,25%
sub11,2,D,295,1,572,c,p,r,s,1,4,75%,25%
sub11,2,D,303,1,821,c,p,s,s,4,2,75%,25%
sub11,2,D,304,1,691,i,p,r,s,4,3,75%,25%
sub11,2,D,305,1,671,i,p,r,s,4,4,75%,25%
sub11,2,D,313,1,595,c,m,r,s,1,2,75%,25%
sub11,2,D,314,1,846,i,p,s,s,1,3,75%,25%
sub11,2,D,315,1,621,c,p,r,s,1,4,75%,25%
sub11,3,B,327,1,715,c,p,r,s,2,2,75%,75%
sub11,3,B,328,1,887,i,m,s,s,2,3,75%,75%
sub11,3,B,329,1,788,i,p,s,s,2,4,75%,75%
sub11,3,B,337,1,882,c,m,s,s,4,2,75%,75%
sub11,3,B,338,1,552,i,m,r,s,4,3,75%,75%
sub11,3,B,339,1,560,i,m,r,s,4,4,75%,75%
sub11,3,B,347,1,837,c,p,s,s,3,2,75%,75%
sub11,3,B,348,1,776,i,p,r,s,3,3,75%,75%
sub11,3,B,349,0,1004,c,m,s,s,3,4,75%,75%
sub11,3,B,357,1,563,c,m,r,s,2,2,75%,75%
sub11,3,B,358,1,869,i,p,s,s,2,3,75%,75%
sub11,3,B,359,1,1167,i,m,s,s,2,4,75%,75%
sub11,3,B,367,1,656,c,m,s,s,4,2,75%,75%
sub11,3,B,368,1,469,i,m,r,s,4,3,75%,75%
sub11,3,B,369,1,478,i,m,r,s,4,4,75%,75%
sub11,3,B,376,1,979,c,m,s,s,3,2,75%,75%
sub11,3,B,377,1,634,i,m,r,s,3,3,75%,75%
sub11,3,B,378,1,651,c,p,s,s,3,4,75%,75%
sub11,3,B,385,1,746,c,m,r,s,1,2,75%,75%
sub11,3,B,386,1,916,i,p,s,s,1,3,75%,75%
sub11,3,B,387,1,698,c,p,r,s,1,4,75%,75%
sub11,3,B,395,1,1011,c,p,s,s,3,2,75%,75%
sub11,3,B,396,1,861,i,p,r,s,3,3,75%,75%
sub11,3,B,397,1,724,c,m,s,s,3,4,75%,75%
sub11,3,B,405,1,471,c,m,r,s,2,2,75%,75%
sub11,3,B,406,1,848,i,p,s,s,2,3,75%,75%
sub11,3,B,407,1,644,i,m,s,s,2,4,75%,75%
sub11,3,B,414,1,997,c,m,s,s,3,2,75%,75%
sub11,3,B,415,1,1277,i,m,r,s,3,3,75%,75%
sub11,3,B,416,1,855,c,p,s,s,3,4,75%,75%
sub11,3,B,422,1,620,c,m,s,s,4,2,75%,75%
sub11,3,B,423,1,710,i,m,r,s,4,3,75%,75%
sub11,3,B,424,1,662,i,m,r,s,4,4,75%,75%
sub11,3,B,432,1,610,c,m,r,s,1,2,75%,75%
sub11,3,B,433,1,910,i,p,s,s,1,3,75%,75%
sub11,3,B,434,1,729,c,p,r,s,1,4,75%,75%
sub11,3,B,442,1,588,c,m,r,s,2,2,75%,75%
sub11,3,B,443,1,816,i,p,s,s,2,3,75%,75%
sub11,3,B,444,1,756,i,m,s,s,2,4,75%,75%
sub11,3,B,452,1,610,c,p,r,s,1,2,75%,75%
sub11,3,B,453,1,645,i,m,s,s,1,3,75%,75%
sub11,3,B,454,1,538,c,m,r,s,1,4,75%,75%
sub11,3,B,462,1,729,c,m,s,s,4,2,75%,75%
sub11,3,B,463,1,1021,i,m,r,s,4,3,75%,75%
sub11,3,B,464,1,743,i,m,r,s,4,4,75%,75%
sub11,3,B,472,1,450,c,m,r,s,1,2,75%,75%
sub11,3,B,473,1,767,i,p,s,s,1,3,75%,75%
sub11,3,B,474,1,621,c,p,r,s,1,4,75%,75%
sub11,4,A,486,1,829,c,p,r,s,2,2,25%,75%
sub11,4,A,487,1,852,i,m,s,s,2,3,25%,75%
sub11,4,A,488,1,889,i,p,s,s,2,4,25%,75%
sub11,4,A,496,1,815,c,p,s,s,4,2,25%,75%
sub11,4,A,497,1,637,i,p,r,s,4,3,25%,75%
sub11,4,A,498,0,576,i,p,r,s,4,4,25%,75%
sub11,4,A,506,1,1025,c,p,s,s,3,2,25%,75%
sub11,4,A,507,1,823,i,p,r,s,3,3,25%,75%
sub11,4,A,508,1,839,c,m,s,s,3,4,25%,75%
sub11,4,A,516,1,589,c,p,r,s,2,2,25%,75%
sub11,4,A,517,1,982,i,m,s,s,2,3,25%,75%
sub11,4,A,518,1,828,i,p,s,s,2,4,25%,75%
sub11,4,A,526,1,622,c,m,s,s,4,2,25%,75%
sub11,4,A,527,1,709,i,m,r,s,4,3,25%,75%
sub11,4,A,528,1,1179,i,m,r,s,4,4,25%,75%
sub11,4,A,536,1,859,c,p,s,s,3,2,25%,75%
sub11,4,A,537,1,612,i,p,r,s,3,3,25%,75%
sub11,4,A,538,1,911,c,m,s,s,3,4,25%,75%
sub11,4,A,545,1,572,c,p,r,s,1,2,25%,75%
sub11,4,A,546,1,651,i,m,s,s,1,3,25%,75%
sub11,4,A,547,1,800,c,m,r,s,1,4,25%,75%
sub11,4,A,555,1,928,c,m,s,s,3,2,25%,75%
sub11,4,A,556,1,919,i,m,r,s,3,3,25%,75%
sub11,4,A,557,1,666,c,p,s,s,3,4,25%,75%
sub11,4,A,565,1,489,c,m,r,s,2,2,25%,75%
sub11,4,A,566,1,977,i,p,s,s,2,3,25%,75%
sub11,4,A,567,1,781,i,m,s,s,2,4,25%,75%
sub11,4,A,575,1,973,c,p,s,s,3,2,25%,75%
sub11,4,A,576,1,671,i,p,r,s,3,3,25%,75%
sub11,4,A,577,1,999,c,m,s,s,3,4,25%,75%
sub11,4,A,583,1,583,c,p,s,s,4,2,25%,75%
sub11,4,A,584,1,810,i,p,r,s,4,3,25%,75%
sub11,4,A,585,1,652,i,p,r,s,4,4,25%,75%
sub11,4,A,593,1,945,c,m,r,s,1,2,25%,75%
sub11,4,A,594,1,899,i,p,s,s,1,3,25%,75%
sub11,4,A,595,1,652,c,p,r,s,1,4,25%,75%
sub11,4,A,603,1,529,c,p,r,s,2,2,25%,75%
sub11,4,A,604,1,1075,i,m,s,s,2,3,25%,75%
sub11,4,A,605,1,1225,i,p,s,s,2,4,25%,75%
sub11,4,A,612,1,496,c,p,r,s,1,2,25%,75%
sub11,4,A,613,1,605,i,m,s,s,1,3,25%,75%
sub11,4,A,614,1,519,c,m,r,s,1,4,25%,75%
sub11,4,A,622,1,786,c,p,s,s,4,2,25%,75%
sub11,4,A,623,1,658,i,p,r,s,4,3,25%,75%
sub11,4,A,624,1,592,i,p,r,s,4,4,25%,75%
sub11,4,A,632,1,812,c,m,r,s,1,2,25%,75%
sub11,4,A,633,1,1056,i,p,s,s,1,3,25%,75%
sub11,4,A,634,1,590,c,p,r,s,1,4,25%,75%
sub12,1,A,6,1,807,c,p,s,s,3,2,25%,75%
sub12,1,A,7,1,1208,i,p,r,s,3,3,25%,75%
sub12,1,A,8,1,836,c,m,s,s,3,4,25%,75%
sub12,1,A,16,1,1145,c,m,s,s,3,2,25%,75%
sub12,1,A,17,1,1262,i,m,r,s,3,3,25%,75%
sub12,1,A,18,1,898,c,p,s,s,3,4,25%,75%
sub12,1,A,26,1,1353,c,m,s,s,4,2,25%,75%
sub12,1,A,27,1,761,i,m,r,s,4,3,25%,75%
sub12,1,A,28,1,1150,i,m,r,s,4,4,25%,75%
sub12,1,A,36,1,1064,c,m,s,s,3,2,25%,75%
sub12,1,A,37,1,1004,i,m,r,s,3,3,25%,75%
sub12,1,A,38,1,1087,c,p,s,s,3,4,25%,75%
sub12,1,A,46,1,818,c,p,r,s,2,2,25%,75%
sub12,1,A,47,1,854,i,m,s,s,2,3,25%,75%
sub12,1,A,48,1,886,i,p,s,s,2,4,25%,75%
sub12,1,A,56,1,1115,c,m,s,s,4,2,25%,75%
sub12,1,A,57,1,1080,i,m,r,s,4,3,25%,75%
sub12,1,A,58,1,602,i,m,r,s,4,4,25%,75%
sub12,1,A,66,1,975,c,m,s,s,3,2,25%,75%
sub12,1,A,67,1,858,i,m,r,s,3,3,25%,75%
sub12,1,A,68,1,746,c,p,s,s,3,4,25%,75%
sub12,1,A,76,1,942,c,m,r,s,1,2,25%,75%
sub12,1,A,77,1,1054,i,p,s,s,1,3,25%,75%
sub12,1,A,78,1,754,c,p,r,s,1,4,25%,75%
sub12,1,A,85,1,640,c,p,r,s,1,2,25%,75%
sub12,1,A,86,1,1103,i,m,s,s,1,3,25%,75%
sub12,1,A,87,1,707,c,m,r,s,1,4,25%,75%
sub12,1,A,95,1,541,c,m,r,s,2,2,25%,75%
sub12,1,A,96,1,1181,i,p,s,s,2,3,25%,75%
sub12,1,A,97,1,929,i,m,s,s,2,4,25%,75%
sub12,1,A,105,1,759,c,p,r,s,2,2,25%,75%
sub12,1,A,106,0,867,i,m,s,s,2,3,25%,75%
sub12,1,A,107,1,1053,i,p,s,s,2,4,25%,75%
sub12,1,A,114,1,752,c,m,s,s,4,2,25%,75%
sub12,1,A,115,1,865,i,m,r,s,4,3,25%,75%
sub12,1,A,116,1,773,i,m,r,s,4,4,25%,75%
sub12,1,A,124,1,764,c,p,r,s,1,2,25%,75%
sub12,1,A,125,0,1310,i,m,s,s,1,3,25%,75%
sub12,1,A,126,1,601,c,m,r,s,1,4,25%,75%
sub12,1,A,133,1,1185,c,p,r,s,1,2,25%,75%
sub12,1,A,134,1,676,i,m,s,s,1,3,25%,75%
sub12,1,A,135,1,733,c,m,r,s,1,4,25%,75%
sub12,1,A,143,1,644,c,m,r,s,2,2,25%,75%
sub12,1,A,144,1,1152,i,p,s,s,2,3,25%,75%
sub12,1,A,145,1,732,i,m,s,s,2,4,25%,75%
sub12,1,A,152,1,588,c,m,s,s,4,2,25%,75%
sub12,1,A,153,1,612,i,m,r,s,4,3,25%,75%
sub12,1,A,154,1,911,i,m,r,s,4,4,25%,75%
sub12,2,B,167,1,1012,c,p,s,s,3,2,75%,75%
sub12,2,B,168,1,704,i,p,r,s,3,3,75%,75%
sub12,2,B,169,1,1211,c,m,s,s,3,4,75%,75%
sub12,2,B,177,1,879,c,p,s,s,3,2,75%,75%
sub12,2,B,178,1,1053,i,p,r,s,3,3,75%,75%
sub12,2,B,179,1,1448,c,m,s,s,3,4,75%,75%
sub12,2,B,186,1,728,c,p,s,s,4,2,75%,75%
sub12,2,B,187,1,1000,i,p,r,s,4,3,75%,75%
sub12,2,B,188,1,593,i,p,r,s,4,4,75%,75%
sub12,2,B,196,1,1226,c,m,s,s,3,2,75%,75%
sub12,2,B,197,1,938,i,m,r,s,3,3,75%,75%
sub12,2,B,198,1,965,c,p,s,s,3,4,75%,75%
sub12,2,B,206,1,672,c,p,r,s,2,2,75%,75%
sub12,2,B,207,1,787,i,m,s,s,2,3,75%,75%
sub12,2,B,208,1,842,i,p,s,s,2,4,75%,75%
sub12,2,B,216,1,1045,c,p,s,s,4,2,75%,75%
sub12,2,B,217,1,773,i,p,r,s,4,3,75%,75%
sub12,2,B,218,1,854,i,p,r,s,4,4,75%,75%
sub12,2,B,226,1,767,c,p,s,s,3,2,75%,75%
sub12,2,B,227,1,681,i,p,r,s,3,3,75%,75%
sub12,2,B,228,1,1010,c,m,s,s,3,4,75%,75%
sub12,2,B,236,1,800,c,m,r,s,1,2,75%,75%
sub12,2,B,237,1,980,i,p,s,s,1,3,75%,75%
sub12,2,B,238,1,672,c,p,r,s,1,4,75%,75%
sub12,2,B,246,1,714,c,p,r,s,1,2,75%,75%
sub12,2,B,247,1,955,i,m,s,s,1,3,75%,75%
sub12,2,B,248,1,899,c,m,r,s,1,4,75%,75%
sub12,2,B,256,1,636,c,p,r,s,2,2,75%,75%
sub12,2,B,257,1,980,i,m,s,s,2,3,75%,75%
sub12,2,B,258,1,1350,i,p,s,s,2,4,75%,75%
sub12,2,B,266,1,1128,c,p,r,s,2,2,75%,75%
sub12,2,B,267,1,749,i,m,s,s,2,3,75%,75%
sub12,2,B,268,1,636,i,p,s,s,2,4,75%,75%
sub12,2,B,276,1,838,c,m,s,s,4,2,75%,75%
sub12,2,B,277,1,1003,i,m,r,s,4,3,75%,75%
sub12,2,B,278,1,806,i,m,r,s,4,4,75%,75%
sub12,2,B,284,1,929,c,m,r,s,1,2,75%,75%
sub12,2,B,285,1,520,i,p,s,s,1,3,75%,75%
sub12,2,B,286,1,521,c,p,r,s,1,4,75%,75%
sub12,2,B,292,1,958,c,m,r,s,1,2,75%,75%
sub12,2,B,293,1,708,i,p,s,s,1,3,75%,75%
sub12,2,B,294,1,745,c,p,r,s,1,4,75%,75%
sub12,2,B,302,1,1051,c,m,r,s,2,2,75%,75%
sub12,2,B,303,1,903,i,p,s,s,2,3,75%,75%
sub12,2,B,304,1,736,i,m,s,s,2,4,75%,75%
sub12,2,B,312,1,1383,c,p,s,s,4,2,75%,75%
sub12,2,B,313,1,521,i,p,r,s,4,3,75%,75%
sub12,2,B,314,1,587,i,p,r,s,4,4,75%,75%
sub12,3,D,325,1,1028,c,p,s,s,3,2,75%,25%
sub12,3,D,326,1,722,i,p,r,s,3,3,75%,25%
sub12,3,D,327,1,663,c,m,s,s,3,4,75%,25%
sub12,3,D,334,1,938,c,m,s,s,3,2,75%,25%
sub12,3,D,335,1,737,i,m,r,s,3,3,75%,25%
sub12,3,D,336,1,884,c,p,s,s,3,4,75%,25%
sub12,3,D,343,1,803,c,m,s,s,4,2,75%,25%
sub12,3,D,344,1,1302,i,m,r,s,4,3,75%,25%
sub12,3,D,345,1,794,i,m,r,s,4,4,75%,25%
sub12,3,D,353,1,761,c,p,s,s,3,2,75%,25%
sub12,3,D,354,1,858,i,p,r,s,3,3,75%,25%
sub12,3,D,355,1,702,c,m,s,s,3,4,75%,25%
sub12,3,D,363,1,722,c,m,r,s,2,2,75%,25%
sub12,3,D,364,1,1153,i,p,s,s,2,3,75%,25%
sub12,3,D,365,1,1012,i,m,s,s,2,4,75%,25%
sub12,3,D,373,1,654,c,p,s,s,4,2,75%,25%
sub12,3,D,374,1,1153,i,p,r,s,4,3,75%,25%
sub12,3,D,375,1,657,i,p,r,s,4,4,75%,25%
sub12,3,D,383,1,495,c,p,s,s,3,2,75%,25%
sub12,3,D,384,1,552,i,p,r,s,3,3,75%,25%
sub12,3,D,385,1,608,c,m,s,s,3,4,75%,25%
sub12,3,D,393,1,780,c,p,r,s,1,2,75%,25%
sub12,3,D,394,1,885,i,m,s,s,1,3,75%,25%
sub12,3,D,395,1,1058,c,m,r,s,1,4,75%,25%
sub12,3,D,402,1,728,c,p,r,s,1,2,75%,25%
sub12,3,D,403,1,1020,i,m,s,s,1,3,75%,25%
sub12,3,D,404,1,487,c,m,r,s,1,4,75%,25%
sub12,3,D,412,1,511,c,p,r,s,2,2,75%,25%
sub12,3,D,413,1,767,i,m,s,s,2,3,75%,25%
sub12,3,D,414,1,800,i,p,s,s,2,4,75%,25%
sub12,3,D,422,1,638,c,m,r,s,2,2,75%,25%
sub12,3,D,423,1,1135,i,p,s,s,2,3,75%,25%
sub12,3,D,424,1,955,i,m,s,s,2,4,75%,25%
sub12,3,D,432,1,586,c,m,s,s,4,2,75%,25%
sub12,3,D,433,1,950,i,m,r,s,4,3,75%,25%
sub12,3,D,434,1,617,i,m,r,s,4,4,75%,25%
sub12,3,D,442,1,494,c,m,r,s,1,2,75%,25%
sub12,3,D,443,1,856,i,p,s,s,1,3,75%,25%
sub12,3,D,444,1,731,c,p,r,s,1,4,75%,25%
sub12,3,D,452,1,634,c,m,r,s,1,2,75%,25%
sub12,3,D,453,0,727,i,p,s,s,1,3,75%,25%
sub12,3,D,454,1,715,c,p,r,s,1,4,75%,25%
sub12,3,D,462,1,1099,c,m,r,s,2,2,75%,25%
sub12,3,D,463,1,644,i,p,s,s,2,3,75%,25%
sub12,3,D,464,1,616,i,m,s,s,2,4,75%,25%
sub12,3,D,472,1,522,c,p,s,s,4,2,75%,25%
sub12,3,D,473,1,629,i,p,r,s,4,3,75%,25%
sub12,3,D,474,1,451,i,p,r,s,4,4,75%,25%
sub12,4,C,487,1,861,c,m,s,s,3,2,25%,25%
sub12,4,C,488,1,1199,i,m,r,s,3,3,25%,25%
sub12,4,C,489,1,800,c,p,s,s,3,4,25%,25%
sub12,4,C,497,1,832,c,m,s,s,3,2,25%,25%
sub12,4,C,498,1,774,i,m,r,s,3,3,25%,25%
sub12,4,C,499,1,489,c,p,s,s,3,4,25%,25%
sub12,4,C,507,1,564,c,p,s,s,4,2,25%,25%
sub12,4,C,508,1,1083,i,p,r,s,4,3,25%,25%
sub12,4,C,509,1,499,i,p,r,s,4,4,25%,25%
sub12,4,C,517,1,534,c,p,s,s,3,2,25%,25%
sub12,4,C,518,0,851,i,p,r,s,3,3,25%,25%
sub12,4,C,519,1,835,c,m,s,s,3,4,25%,25%
sub12,4,C,527,1,499,c,p,r,s,2,2,25%,25%
sub12,4,C,528,1,922,i,m,s,s,2,3,25%,25%
sub12,4,C,529,0,705,i,p,s,s,2,4,25%,25%
sub12,4,C,537,1,786,c,m,s,s,4,2,25%,25%
sub12,4,C,538,0,563,i,m,r,s,4,3,25%,25%
sub12,4,C,539,1,848,i,m,r,s,4,4,25%,25%
sub12,4,C,547,1,689,c,p,s,s,3,2,25%,25%
sub12,4,C,548,1,1406,i,p,r,s,3,3,25%,25%
sub12,4,C,549,1,1439,c,m,s,s,3,4,25%,25%
sub12,4,C,557,1,548,c,p,r,s,1,2,25%,25%
sub12,4,C,558,1,845,i,m,s,s,1,3,25%,25%
sub12,4,C,559,1,809,c,m,r,s,1,4,25%,25%
sub12,4,C,567,1,545,c,p,r,s,1,2,25%,25%
sub12,4,C,568,1,724,i,m,s,s,1,3,25%,25%
sub12,4,C,569,1,871,c,m,r,s,1,4,25%,25%
sub12,4,C,575,1,548,c,m,r,s,2,2,25%,25%
sub12,4,C,576,1,1245,i,p,s,s,2,3,25%,25%
sub12,4,C,577,1,874,i,m,s,s,2,4,25%,25%
sub12,4,C,584,1,542,c,m,r,s,2,2,25%,25%
sub12,4,C,585,1,634,i,p,s,s,2,3,25%,25%
sub12,4,C,586,1,1152,i,m,s,s,2,4,25%,25%
sub12,4,C,594,1,1365,c,p,s,s,4,2,25%,25%
sub12,4,C,595,1,635,i,p,r,s,4,3,25%,25%
sub12,4,C,596,1,593,i,p,r,s,4,4,25%,25%
sub12,4,C,604,1,489,c,p,r,s,1,2,25%,25%
sub12,4,C,605,1,826,i,m,s,s,1,3,25%,25%
sub12,4,C,606,1,612,c,m,r,s,1,4,25%,25%
sub12,4,C,612,1,1231,c,m,r,s,1,2,25%,25%
sub12,4,C,613,1,780,i,p,s,s,1,3,25%,25%
sub12,4,C,614,1,811,c,p,r,s,1,4,25%,25%
sub12,4,C,622,1,785,c,m,r,s,2,2,25%,25%
sub12,4,C,623,1,676,i,p,s,s,2,3,25%,25%
sub12,4,C,624,1,1105,i,m,s,s,2,4,25%,25%
sub12,4,C,632,1,640,c,p,s,s,4,2,25%,25%
sub12,4,C,633,0,884,i,p,r,s,4,3,25%,25%
sub12,4,C,634,1,1191,i,p,r,s,4,4,25%,25%
sub13,1,D,5,1,765,c,m,r,s,1,2,75%,25%
sub13,1,D,6,0,643,i,p,s,s,1,3,75%,25%
sub13,1,D,7,1,734,c,p,r,s,1,4,75%,25%
sub13,1,D,15,1,672,c,p,s,s,4,2,75%,25%
sub13,1,D,16,0,922,i,p,r,s,4,3,75%,25%
sub13,1,D,17,1,828,i,p,r,s,4,4,75%,25%
sub13,1,D,25,1,763,c,m,s,s,4,2,75%,25%
sub13,1,D,26,0,894,i,m,r,s,4,3,75%,25%
sub13,1,D,27,0,879,i,m,r,s,4,4,75%,25%
sub13,1,D,35,1,715,c,p,s,s,3,2,75%,25%
sub13,1,D,36,0,1213,i,p,r,s,3,3,75%,25%
sub13,1,D,37,1,1257,c,m,s,s,3,4,75%,25%
sub13,1,D,45,1,919,c,m,r,s,1,2,75%,25%
sub13,1,D,46,1,998,i,p,s,s,1,3,75%,25%
sub13,1,D,47,1,798,c,p,r,s,1,4,75%,25%
sub13,1,D,55,1,854,c,p,s,s,3,2,75%,25%
sub13,1,D,56,0,894,i,p,r,s,3,3,75%,25%
sub13,1,D,57,1,856,c,m,s,s,3,4,75%,25%
sub13,1,D,65,1,775,c,m,s,s,4,2,75%,25%
sub13,1,D,66,1,1300,i,m,r,s,4,3,75%,25%
sub13,1,D,67,0,946,i,m,r,s,4,4,75%,25%
sub13,1,D,75,1,803,c,m,r,s,2,2,75%,25%
sub13,1,D,76,0,1078,i,p,s,s,2,3,75%,25%
sub13,1,D,77,0,958,i,m,s,s,2,4,75%,25%
sub13,1,D,85,1,882,c,m,r,s,2,2,75%,25%
sub13,1,D,86,0,1206,i,p,s,s,2,3,75%,25%
sub13,1,D,87,0,1343,i,m,s,s,2,4,75%,25%
sub13,1,D,95,1,802,c,p,r,s,1,2,75%,25%
sub13,1,D,96,0,1006,i,m,s,s,1,3,75%,25%
sub13,1,D,97,1,911,c,m,r,s,1,4,75%,25%
sub13,1,D,103,1,774,c,m,s,s,4,2,75%,25%
sub13,1,D,104,1,961,i,m,r,s,4,3,75%,25%
sub13,1,D,105,1,1206,i,m,r,s,4,4,75%,25%
sub13,1,D,113,1,998,c,m,s,s,3,2,75%,25%
sub13,1,D,114,1,1058,i,m,r,s,3,3,75%,25%
sub13,1,D,115,1,998,c,p,s,s,3,4,75%,25%
sub13,1,D,122,1,1317,c,p,r,s,2,2,75%,25%
sub13,1,D,123,1,858,i,m,s,s,2,3,75%,25%
sub13,1,D,124,1,935,i,p,s,s,2,4,75%,25%
sub13,1,D,132,1,1119,c,m,r,s,2,2,75%,25%
sub13,1,D,133,1,1500,i,p,s,s,2,3,75%,25%
sub13,1,D,134,1,849,i,m,s,s,2,4,75%,25%
sub13,1,D,142,1,813,c,m,s,s,3,2,75%,25%
sub13,1,D,143,1,1078,i,m,r,s,3,3,75%,25%
sub13,1,D,144,1,906,c,p,s,s,3,4,75%,25%
sub13,1,D,152,1,805,c,m,r,s,1,2,75%,25%
sub13,1,D,153,0,782,i,p,s,s,1,3,75%,25%
sub13,1,D,154,1,1038,c,p,r,s,1,4,75%,25%
sub13,2,A,166,1,973,c,m,r,s,1,2,25%,75%
sub13,2,A,167,1,973,i,p,s,s,1,3,25%,75%
sub13,2,A,168,1,855,c,p,r,s,1,4,25%,75%
sub13,2,A,176,1,894,c,m,s,s,4,2,25%,75%
sub13,2,A,177,1,1267,i,m,r,s,4,3,25%,75%
sub13,2,A,178,1,887,i,m,r,s,4,4,25%,75%
sub13,2,A,185,1,825,c,m,s,s,4,2,25%,75%
sub13,2,A,186,0,927,i,m,r,s,4,3,25%,75%
sub13,2,A,187,1,868,i,m,r,s,4,4,25%,75%
sub13,2,A,195,1,846,c,p,s,s,3,2,25%,75%
sub13,2,A,196,0,792,i,p,r,s,3,3,25%,75%
sub13,2,A,197,1,1071,c,m,s,s,3,4,25%,75%
sub13,2,A,205,1,828,c,p,r,s,1,2,25%,75%
sub13,2,A,206,1,1015,i,m,s,s,1,3,25%,75%
sub13,2,A,207,1,863,c,m,r,s,1,4,25%,75%
sub13,2,A,214,1,753,c,m,s,s,3,2,25%,75%
sub13,2,A,215,1,730,i,m,r,s,3,3,25%,75%
sub13,2,A,216,1,814,c,p,s,s,3,4,25%,75%
sub13,2,A,224,1,813,c,p,s,s,4,2,25%,75%
sub13,2,A,225,1,900,i,p,r,s,4,3,25%,75%
sub13,2,A,226,0,821,i,p,r,s,4,4,25%,75%
sub13,2,A,234,1,903,c,m,r,s,2,2,25%,75%
sub13,2,A,235,1,961,i,p,s,s,2,3,25%,75%
sub13,2,A,236,1,835,i,m,s,s,2,4,25%,75%
sub13,2,A,244,1,847,c,m,r,s,2,2,25%,75%
sub13,2,A,245,0,931,i,p,s,s,2,3,25%,75%
sub13,2,A,246,1,853,i,m,s,s,2,4,25%,75%
sub13,2,A,253,1,869,c,m,r,s,1,2,25%,75%
sub13,2,A,254,0,857,i,p,s,s,1,3,25%,75%
sub13,2,A,255,1,1049,c,p,r,s,1,4,25%,75%
sub13,2,A,263,1,795,c,m,s,s,4,2,25%,75%
sub13,2,A,264,1,940,i,m,r,s,4,3,25%,75%
sub13,2,A,265,1,1011,i,m,r,s,4,4,25%,75%
sub13,2,A,272,1,1110,c,m,s,s,3,2,25%,75%
sub13,2,A,273,0,NA,i,m,r,s,3,3,25%,75%
sub13,2,A,274,1,844,c,p,s,s,3,4,25%,75%
sub13,2,A,282,1,831,c,p,r,s,2,2,25%,75%
sub13,2,A,283,1,845,i,m,s,s,2,3,25%,75%
sub13,2,A,284,1,1040,i,p,s,s,2,4,25%,75%
sub13,2,A,292,1,976,c,m,r,s,2,2,25%,75%
sub13,2,A,293,1,1077,i,p,s,s,2,3,25%,75%
sub13,2,A,294,1,794,i,m,s,s,2,4,25%,75%
sub13,2,A,302,1,723,c,p,s,s,3,2,25%,75%
sub13,2,A,303,1,832,i,p,r,s,3,3,25%,75%
sub13,2,A,304,1,885,c,m,s,s,3,4,25%,75%
sub13,2,A,312,1,763,c,m,r,s,1,2,25%,75%
sub13,2,A,313,1,921,i,p,s,s,1,3,25%,75%
sub13,2,A,314,1,760,c,p,r,s,1,4,25%,75%
sub13,3,C,327,1,908,c,p,r,s,1,2,25%,25%
sub13,3,C,328,1,945,i,m,s,s,1,3,25%,25%
sub13,3,C,329,1,810,c,m,r,s,1,4,25%,25%
sub13,3,C,335,1,877,c,p,s,s,4,2,25%,25%
sub13,3,C,336,1,848,i,p,r,s,4,3,25%,25%
sub13,3,C,337,1,837,i,p,r,s,4,4,25%,25%
sub13,3,C,344,1,813,c,m,s,s,4,2,25%,25%
sub13,3,C,345,1,1156,i,m,r,s,4,3,25%,25%
sub13,3,C,346,1,849,i,m,r,s,4,4,25%,25%
sub13,3,C,354,1,989,c,p,s,s,3,2,25%,25%
sub13,3,C,355,1,906,i,p,r,s,3,3,25%,25%
sub13,3,C,356,1,748,c,m,s,s,3,4,25%,25%
sub13,3,C,363,1,859,c,m,r,s,1,2,25%,25%
sub13,3,C,364,0,1356,i,p,s,s,1,3,25%,25%
sub13,3,C,365,1,812,c,p,r,s,1,4,25%,25%
sub13,3,C,372,1,875,c,m,s,s,3,2,25%,25%
sub13,3,C,373,0,1001,i,m,r,s,3,3,25%,25%
sub13,3,C,374,1,844,c,p,s,s,3,4,25%,25%
sub13,3,C,382,1,890,c,m,s,s,4,2,25%,25%
sub13,3,C,383,1,928,i,m,r,s,4,3,25%,25%
sub13,3,C,384,1,1016,i,m,r,s,4,4,25%,25%
sub13,3,C,392,1,1032,c,p,r,s,2,2,25%,25%
sub13,3,C,393,0,859,i,m,s,s,2,3,25%,25%
sub13,3,C,394,1,859,i,p,s,s,2,4,25%,25%
sub13,3,C,402,1,734,c,p,r,s,2,2,25%,25%
sub13,3,C,403,1,1235,i,m,s,s,2,3,25%,25%
sub13,3,C,404,1,1062,i,p,s,s,2,4,25%,25%
sub13,3,C,412,1,885,c,p,r,s,1,2,25%,25%
sub13,3,C,413,1,1077,i,m,s,s,1,3,25%,25%
sub13,3,C,414,1,742,c,m,r,s,1,4,25%,25%
sub13,3,C,422,1,877,c,m,s,s,4,2,25%,25%
sub13,3,C,423,1,828,i,m,r,s,4,3,25%,25%
sub13,3,C,424,1,842,i,m,r,s,4,4,25%,25%
sub13,3,C,432,1,1133,c,p,s,s,3,2,25%,25%
sub13,3,C,433,0,921,i,p,r,s,3,3,25%,25%
sub13,3,C,434,1,868,c,m,s,s,3,4,25%,25%
sub13,3,C,442,1,714,c,p,r,s,2,2,25%,25%
sub13,3,C,443,1,1202,i,m,s,s,2,3,25%,25%
sub13,3,C,444,1,994,i,p,s,s,2,4,25%,25%
sub13,3,C,452,1,836,c,p,r,s,2,2,25%,25%
sub13,3,C,453,0,954,i,m,s,s,2,3,25%,25%
sub13,3,C,454,1,1066,i,p,s,s,2,4,25%,25%
sub13,3,C,462,1,893,c,m,s,s,3,2,25%,25%
sub13,3,C,463,1,1040,i,m,r,s,3,3,25%,25%
sub13,3,C,464,1,1108,c,p,s,s,3,4,25%,25%
sub13,3,C,472,1,790,c,p,r,s,1,2,25%,25%
sub13,3,C,473,0,1186,i,m,s,s,1,3,25%,25%
sub13,3,C,474,1,858,c,m,r,s,1,4,25%,25%
sub13,4,B,486,1,766,c,p,r,s,1,2,75%,75%
sub13,4,B,487,0,734,i,m,s,s,1,3,75%,75%
sub13,4,B,488,1,750,c,m,r,s,1,4,75%,75%
sub13,4,B,495,1,1234,c,p,s,s,4,2,75%,75%
sub13,4,B,496,1,1094,i,p,r,s,4,3,75%,75%
sub13,4,B,497,0,1250,i,p,r,s,4,4,75%,75%
sub13,4,B,505,1,734,c,p,s,s,4,2,75%,75%
sub13,4,B,506,1,952,i,p,r,s,4,3,75%,75%
sub13,4,B,507,1,828,i,p,r,s,4,4,75%,75%
sub13,4,B,515,1,1391,c,m,s,s,3,2,75%,75%
sub13,4,B,516,1,1047,i,m,r,s,3,3,75%,75%
sub13,4,B,517,1,1313,c,p,s,s,3,4,75%,75%
sub13,4,B,524,1,813,c,m,r,s,1,2,75%,75%
sub13,4,B,525,1,1359,i,p,s,s,1,3,75%,75%
sub13,4,B,526,1,1171,c,p,r,s,1,4,75%,75%
sub13,4,B,534,1,765,c,m,s,s,3,2,75%,75%
sub13,4,B,535,1,844,i,m,r,s,3,3,75%,75%
sub13,4,B,536,1,875,c,p,s,s,3,4,75%,75%
sub13,4,B,544,1,1125,c,m,s,s,4,2,75%,75%
sub13,4,B,545,1,814,i,m,r,s,4,3,75%,75%
sub13,4,B,546,1,1342,i,m,r,s,4,4,75%,75%
sub13,4,B,554,1,797,c,p,r,s,2,2,75%,75%
sub13,4,B,555,1,1031,i,m,s,s,2,3,75%,75%
sub13,4,B,556,1,891,i,p,s,s,2,4,75%,75%
sub13,4,B,564,1,781,c,p,r,s,2,2,75%,75%
sub13,4,B,565,1,1422,i,m,s,s,2,3,75%,75%
sub13,4,B,566,1,1053,i,p,s,s,2,4,75%,75%
sub13,4,B,574,1,1124,c,p,r,s,1,2,75%,75%
sub13,4,B,575,0,1500,i,m,s,s,1,3,75%,75%
sub13,4,B,576,0,NA,c,m,r,s,1,4,75%,75%
sub13,4,B,583,1,1187,c,p,s,s,4,2,75%,75%
sub13,4,B,584,1,1340,i,p,r,s,4,3,75%,75%
sub13,4,B,585,1,953,i,p,r,s,4,4,75%,75%
sub13,4,B,593,1,843,c,p,s,s,3,2,75%,75%
sub13,4,B,594,1,1031,i,p,r,s,3,3,75%,75%
sub13,4,B,595,1,1328,c,m,s,s,3,4,75%,75%
sub13,4,B,603,1,875,c,p,r,s,2,2,75%,75%
sub13,4,B,604,0,750,i,m,s,s,2,3,75%,75%
sub13,4,B,605,1,1219,i,p,s,s,2,4,75%,75%
sub13,4,B,613,1,938,c,m,r,s,2,2,75%,75%
sub13,4,B,614,1,980,i,p,s,s,2,3,75%,75%
sub13,4,B,615,0,1062,i,m,s,s,2,4,75%,75%
sub13,4,B,623,1,750,c,m,s,s,3,2,75%,75%
sub13,4,B,624,1,1407,i,m,r,s,3,3,75%,75%
sub13,4,B,625,1,1416,c,p,s,s,3,4,75%,75%
sub13,4,B,633,1,1047,c,m,r,s,1,2,75%,75%
sub13,4,B,634,1,1110,i,p,s,s,1,3,75%,75%
sub13,4,B,635,1,920,c,p,r,s,1,4,75%,75%
sub14,1,B,7,1,1162,c,p,s,s,3,2,75%,75%
sub14,1,B,8,0,986,i,p,r,s,3,3,75%,75%
sub14,1,B,9,1,715,c,m,s,s,3,4,75%,75%
sub14,1,B,17,1,1098,c,p,r,s,2,2,75%,75%
sub14,1,B,18,0,1034,i,m,s,s,2,3,75%,75%
sub14,1,B,19,1,962,i,p,s,s,2,4,75%,75%
sub14,1,B,26,0,1066,c,m,r,s,1,2,75%,75%
sub14,1,B,27,1,906,i,p,s,s,1,3,75%,75%
sub14,1,B,28,1,738,c,p,r,s,1,4,75%,75%
sub14,1,B,34,1,1082,c,p,s,s,4,2,75%,75%
sub14,1,B,35,1,921,i,p,r,s,4,3,75%,75%
sub14,1,B,36,1,937,i,p,r,s,4,4,75%,75%
sub14,1,B,44,1,866,c,m,s,s,3,2,75%,75%
sub14,1,B,45,1,1138,i,m,r,s,3,3,75%,75%
sub14,1,B,46,1,1066,c,p,s,s,3,4,75%,75%
sub14,1,B,53,1,1065,c,m,s,s,4,2,75%,75%
sub14,1,B,54,1,906,i,m,r,s,4,3,75%,75%
sub14,1,B,55,1,1066,i,m,r,s,4,4,75%,75%
sub14,1,B,63,1,1337,c,p,r,s,1,2,75%,75%
sub14,1,B,64,1,1017,i,m,s,s,1,3,75%,75%
sub14,1,B,65,1,1225,c,m,r,s,1,4,75%,75%
sub14,1,B,73,1,959,c,p,r,s,2,2,75%,75%
sub14,1,B,74,0,976,i,m,s,s,2,3,75%,75%
sub14,1,B,75,1,992,i,p,s,s,2,4,75%,75%
sub14,1,B,82,1,864,c,p,s,s,3,2,75%,75%
sub14,1,B,83,1,952,i,p,r,s,3,3,75%,75%
sub14,1,B,84,1,864,c,m,s,s,3,4,75%,75%
sub14,1,B,92,1,1000,c,p,s,s,4,2,75%,75%
sub14,1,B,93,1,1047,i,p,r,s,4,3,75%,75%
sub14,1,B,94,1,1096,i,p,r,s,4,4,75%,75%
