expStage,sectionType,block,blockType,trialCount,blockTrialCount,acc,RT,taskStim,congruency,cuedTask,taskSequence,partResp,stimOnset,respOnset,corrResp,sequenceType,sequenceKind,sequencePosition,sectionStart,sectionEnd,sectionTime,subject
prac1-1,instructions,1,NA,NA,NA,NA,NA,NA,NA,NA,NA,NA,NA,NA,NA,NA,NA,NA,0,8522,8522,sub1
prac1-2,instructions,1,NA,NA,NA,NA,NA,NA,NA,NA,NA,NA,NA,NA,NA,NA,NA,NA,8524,32062,23538,sub1
task,pracTask,1,NA,1,1,1,1056,9,c,p,n,109,35615,36671,109,NA,NA,NA,NA,NA,NA,sub1
task,pracTask,1,NA,2,2,1,1042,1,i,p,r,109,38699,39741,109,NA,NA,NA,NA,NA,NA,sub1
task,pracTask,1,NA,3,3,1,1008,2,c,p,r,122,41552,42560,122,NA,NA,NA,NA,NA,NA,sub1
task,pracTask,1,NA,4,4,1,1352,9,c,p,r,109,44669,46021,109,NA,NA,NA,NA,NA,NA,sub1
task,pracTask,1,NA,5,5,1,1066,6,i,p,r,122,47896,48962,122,NA,NA,NA,NA,NA,NA,sub1
task,pracTask,1,NA,6,6,1,1066,9,c,p,r,109,50934,52000,109,NA,NA,NA,NA,NA,NA,sub1
task,pracTask,1,NA,7,7,1,1228,8,i,p,r,122,54064,55292,122,NA,NA,NA,NA,NA,NA,sub1
task,pracTask,1,NA,8,8,1,1007,2,c,p,r,122,57345,58352,122,NA,NA,NA,NA,NA,NA,sub1
prac1-2,pracFeedback,1,NA,NA,NA,NA,NA,NA,NA,NA,NA,NA,NA,NA,NA,NA,NA,NA,59789,61864,2075,sub1
prac2,instructions,1,NA,NA,NA,NA,NA,NA,NA,NA,NA,NA,NA,NA,NA,NA,NA,NA,61865,73575,11710,sub1
task,pracTask,1,NA,1,1,1,1434,2,c,m,n,122,77165,78599,122,NA,NA,NA,NA,NA,NA,sub1
task,pracTask,1,NA,2,2,1,910,3,i,m,r,122,80564,81474,122,NA,NA,NA,NA,NA,NA,sub1
task,pracTask,1,NA,3,3,1,888,4,c,m,r,122,83400,84288,122,NA,NA,NA,NA,NA,NA,sub1
task,pracTask,1,NA,4,4,1,932,7,c,m,r,109,86184,87116,109,NA,NA,NA,NA,NA,NA,sub1
task,pracTask,1,NA,5,5,1,1023,4,c,m,r,122,89125,90148,122,NA,NA,NA,NA,NA,NA,sub1
task,pracTask,1,NA,6,6,1,795,3,i,m,r,122,92072,92867,122,NA,NA,NA,NA,NA,NA,sub1
task,pracTask,1,NA,7,7,1,1032,1,i,m,r,122,94768,95800,122,NA,NA,NA,NA,NA,NA,sub1
task,pracTask,1,NA,8,8,1,959,6,i,m,r,109,97629,98588,109,NA,NA,NA,NA,NA,NA,sub1
prac2,pracFeedback,1,NA,NA,NA,NA,NA,NA,NA,NA,NA,NA,NA,NA,NA,NA,NA,NA,100151,101606,1455,sub1
prac3,instructions,1,NA,NA,NA,NA,NA,NA,NA,NA,NA,NA,NA,NA,NA,NA,NA,NA,101608,112687,11079,sub1
task,pracTask,1,NA,1,1,1,1132,4,c,p,n,122,116300,117432,122,NA,NA,NA,NA,NA,NA,sub1
task,pracTask,1,NA,2,2,1,1411,1,i,m,s,122,119567,120978,122,NA,NA,NA,NA,NA,NA,sub1
task,pracTask,1,NA,3,3,1,1160,7,c,p,s,109,122991,124151,109,NA,NA,NA,NA,NA,NA,sub1
task,pracTask,1,NA,4,4,1,1045,6,i,p,r,122,126335,127380,122,NA,NA,NA,NA,NA,NA,sub1
task,pracTask,1,NA,5,5,1,1308,2,c,p,r,122,129335,130643,122,NA,NA,NA,NA,NA,NA,sub1
task,pracTask,1,NA,6,6,1,1062,6,i,p,r,122,132685,133747,122,NA,NA,NA,NA,NA,NA,sub1
task,pracTask,1,NA,7,7,1,1299,3,i,m,s,122,135638,136937,122,NA,NA,NA,NA,NA,NA,sub1
task,pracTask,1,NA,8,8,1,899,7,c,m,r,109,138847,139746,109,NA,NA,NA,NA,NA,NA,sub1
task,pracTask,1,NA,9,9,1,1134,4,c,p,s,122,141925,143059,122,NA,NA,NA,NA,NA,NA,sub1
task,pracTask,1,NA,10,10,1,1009,2,c,p,r,122,145087,146096,122,NA,NA,NA,NA,NA,NA,sub1
task,pracTask,1,NA,11,11,1,1143,7,c,m,s,109,148065,149208,109,NA,NA,NA,NA,NA,NA,sub1
task,pracTask,1,NA,12,12,1,1433,3,i,m,r,122,151232,152665,122,NA,NA,NA,NA,NA,NA,sub1
task,pracTask,1,NA,13,13,1,1118,4,c,m,r,122,154561,155679,122,NA,NA,NA,NA,NA,NA,sub1
task,pracTask,1,NA,14,14,1,1089,2,c,p,s,122,157727,158816,122,NA,NA,NA,NA,NA,NA,sub1
task,pracTask,1,NA,15,15,1,896,3,i,p,r,109,160824,161720,109,NA,NA,NA,NA,NA,NA,sub1
task,pracTask,1,NA,16,16,1,1184,8,i,m,s,109,163841,165025,109,NA,NA,NA,NA,NA,NA,sub1
prac3,pracFeedback,1,NA,NA,NA,NA,NA,NA,NA,NA,NA,NA,NA,NA,NA,NA,NA,NA,166551,168074,1523,sub1
main1,instructions,1,NA,NA,NA,NA,NA,NA,NA,NA,NA,NA,NA,NA,NA,NA,NA,NA,168074,176488,8414,sub1
main1-2,instructions,1,NA,NA,NA,NA,NA,NA,NA,NA,NA,NA,NA,NA,NA,NA,NA,NA,176490,183593,7103,sub1
task,mainTask,1,A,1,1,1,1032,1,i,m,n,122,187111,188143,122,f,NA,NA,NA,NA,NA,sub1
task,mainTask,1,A,2,2,1,868,8,i,m,r,109,190140,191008,109,f,NA,NA,NA,NA,NA,sub1
task,mainTask,1,A,3,3,1,1001,3,i,m,r,122,193200,194201,122,f,NA,NA,NA,NA,NA,sub1
task,mainTask,1,A,4,4,1,896,1,i,m,r,122,196281,197177,122,f,NA,NA,NA,NA,NA,sub1
task,mainTask,1,A,5,5,1,980,6,i,m,r,109,199228,200208,109,f,NA,NA,NA,NA,NA,sub1
task,mainTask,1,A,6,6,1,1062,7,c,p,s,109,202029,203091,109,s,4,1,NA,NA,NA,sub1
task,mainTask,1,A,7,7,1,823,4,c,m,s,122,205003,205826,122,s,4,2,NA,NA,NA,sub1
task,mainTask,1,A,8,8,1,834,6,i,m,r,109,207936,208770,109,s,4,3,NA,NA,NA,sub1
task,mainTask,1,A,9,9,1,1059,8,i,m,r,109,210903,211962,109,s,4,4,NA,NA,NA,sub1
task,mainTask,1,A,10,10,1,1148,7,c,p,s,109,213889,215037,109,f,NA,NA,NA,NA,NA,sub1
task,mainTask,1,A,11,11,1,1158,3,i,p,r,109,217097,218255,109,f,NA,NA,NA,NA,NA,sub1
task,mainTask,1,A,12,12,1,1237,6,i,p,r,122,220158,221395,122,f,NA,NA,NA,NA,NA,sub1
task,mainTask,1,A,13,13,0,851,1,i,p,r,122,223217,224068,109,f,NA,NA,NA,NA,NA,sub1
task,mainTask,1,A,14,14,1,1094,8,i,p,r,122,226083,227177,122,f,NA,NA,NA,NA,NA,sub1
task,mainTask,1,A,15,15,0,1427,1,i,p,r,122,229354,230781,109,s,3,1,NA,NA,NA,sub1
task,mainTask,1,A,16,16,1,1223,4,c,m,s,122,232826,234049,122,s,3,2,NA,NA,NA,sub1
task,mainTask,1,A,17,17,1,1062,3,i,m,r,122,235894,236956,122,s,3,3,NA,NA,NA,sub1
task,mainTask,1,A,18,18,0,1046,2,c,p,s,109,238919,239965,122,s,3,4,NA,NA,NA,sub1
task,mainTask,1,A,19,19,1,982,7,c,m,s,109,241982,242964,109,f,NA,NA,NA,NA,NA,sub1
task,mainTask,1,A,20,20,1,1375,3,i,m,r,122,244831,246206,122,f,NA,NA,NA,NA,NA,sub1
task,mainTask,1,A,21,21,1,940,8,i,m,r,109,247921,248861,109,f,NA,NA,NA,NA,NA,sub1
task,mainTask,1,A,22,22,1,1160,1,i,m,r,122,250852,252012,122,f,NA,NA,NA,NA,NA,sub1
task,mainTask,1,A,23,23,0,1171,6,i,p,s,109,253778,254949,122,s,1,1,NA,NA,NA,sub1
task,mainTask,1,A,24,24,1,1106,7,c,p,r,109,256925,258031,109,s,1,2,NA,NA,NA,sub1
task,mainTask,1,A,25,25,1,1058,8,i,m,s,109,259952,261010,109,s,1,3,NA,NA,NA,sub1
task,mainTask,1,A,26,26,1,1193,7,c,m,r,109,262898,264091,109,s,1,4,NA,NA,NA,sub1
task,mainTask,1,A,27,27,1,1019,3,i,m,r,122,266039,267058,122,f,NA,NA,NA,NA,NA,sub1
task,mainTask,1,A,28,28,1,1146,1,i,m,r,122,269084,270230,122,f,NA,NA,NA,NA,NA,sub1
task,mainTask,1,A,29,29,1,902,8,i,m,r,109,272349,273251,109,f,NA,NA,NA,NA,NA,sub1
task,mainTask,1,A,30,30,1,1033,3,i,m,r,122,275360,276393,122,f,NA,NA,NA,NA,NA,sub1
task,mainTask,1,A,31,31,1,869,1,i,m,r,122,278359,279228,122,f,NA,NA,NA,NA,NA,sub1
task,mainTask,1,A,32,32,1,902,6,i,m,r,109,281243,282145,109,f,NA,NA,NA,NA,NA,sub1
task,mainTask,1,A,33,33,1,1051,2,c,m,r,122,284192,285243,122,s,2,1,NA,NA,NA,sub1
task,mainTask,1,A,34,34,1,1030,7,c,m,r,109,287070,288100,109,s,2,2,NA,NA,NA,sub1
task,mainTask,1,A,35,35,1,1204,6,i,p,s,122,290018,291222,122,s,2,3,NA,NA,NA,sub1
task,mainTask,1,A,36,36,1,1106,1,i,m,s,122,293116,294222,122,s,2,4,NA,NA,NA,sub1
task,mainTask,1,A,37,37,1,948,7,c,p,s,109,296111,297059,109,f,NA,NA,NA,NA,NA,sub1
task,mainTask,1,A,38,38,1,1055,1,i,p,r,109,299012,300067,109,f,NA,NA,NA,NA,NA,sub1
task,mainTask,1,A,39,39,1,969,3,i,p,r,109,302080,303049,109,f,NA,NA,NA,NA,NA,sub1
task,mainTask,1,A,40,40,1,988,1,i,p,r,109,305585,306573,109,f,NA,NA,NA,NA,NA,sub1
task,mainTask,1,A,41,41,1,958,6,i,p,r,122,308567,309525,122,f,NA,NA,NA,NA,NA,sub1
task,mainTask,1,A,42,42,1,981,8,i,p,r,122,311535,312516,122,f,NA,NA,NA,NA,NA,sub1
task,mainTask,1,A,43,43,1,941,3,i,m,s,122,314503,315444,122,s,1,1,NA,NA,NA,sub1
task,mainTask,1,A,44,44,1,892,2,c,m,r,122,317484,318376,122,s,1,2,NA,NA,NA,sub1
task,mainTask,1,A,45,45,1,1220,6,i,p,s,122,320484,321704,122,s,1,3,NA,NA,NA,sub1
task,mainTask,1,A,46,46,1,1472,7,c,p,r,109,323539,325011,109,s,1,4,NA,NA,NA,sub1
task,mainTask,1,A,47,47,1,1172,3,i,p,r,109,326957,328129,109,f,NA,NA,NA,NA,NA,sub1
task,mainTask,1,A,48,48,1,862,1,i,p,r,109,330208,331070,109,f,NA,NA,NA,NA,NA,sub1
task,mainTask,1,A,49,49,1,1028,6,i,p,r,122,333126,334154,122,f,NA,NA,NA,NA,NA,sub1
task,mainTask,1,A,50,50,1,1038,8,i,p,r,122,336059,337097,122,f,NA,NA,NA,NA,NA,sub1
task,mainTask,1,A,51,51,1,1087,3,i,p,r,109,339090,340177,109,f,NA,NA,NA,NA,NA,sub1
task,mainTask,1,A,52,52,1,985,1,i,p,r,109,342086,343071,109,f,NA,NA,NA,NA,NA,sub1
task,mainTask,1,A,53,53,1,1101,4,c,m,s,122,345337,346438,122,s,4,1,NA,NA,NA,sub1
task,mainTask,1,A,54,54,1,1124,7,c,p,s,109,348387,349511,109,s,4,2,NA,NA,NA,sub1
task,mainTask,1,A,55,55,1,998,1,i,p,r,109,351402,352400,109,s,4,3,NA,NA,NA,sub1
task,mainTask,1,A,56,56,1,1013,8,i,p,r,122,354595,355608,122,s,4,4,NA,NA,NA,sub1
task,mainTask,1,A,57,57,1,1122,7,c,m,s,109,357416,358538,109,f,NA,NA,NA,NA,NA,sub1
task,mainTask,1,A,58,58,1,1142,3,i,m,r,122,360383,361525,122,f,NA,NA,NA,NA,NA,sub1
task,mainTask,1,A,59,59,0,1081,6,i,m,r,122,363431,364512,109,f,NA,NA,NA,NA,NA,sub1
task,mainTask,1,A,60,60,1,892,3,i,m,r,122,366455,367347,122,f,NA,NA,NA,NA,NA,sub1
task,mainTask,1,A,61,61,1,1080,6,i,m,r,109,369407,370487,109,f,NA,NA,NA,NA,NA,sub1
task,mainTask,1,A,62,62,1,1071,8,i,m,r,109,372363,373434,109,f,NA,NA,NA,NA,NA,sub1
task,mainTask,1,A,63,63,1,1114,6,i,p,s,122,375512,376626,122,s,1,1,NA,NA,NA,sub1
task,mainTask,1,A,64,64,1,1102,7,c,p,r,109,378564,379666,109,s,1,2,NA,NA,NA,sub1
task,mainTask,1,A,65,65,1,990,8,i,m,s,109,382211,383201,109,s,1,3,NA,NA,NA,sub1
task,mainTask,1,A,66,66,1,1077,4,c,m,r,122,385224,386301,122,s,1,4,NA,NA,NA,sub1
task,mainTask,1,A,67,67,1,1251,9,c,p,s,109,388549,389800,109,f,NA,NA,NA,NA,NA,sub1
task,mainTask,1,A,68,68,1,1163,3,i,p,r,109,391856,393019,109,f,NA,NA,NA,NA,NA,sub1
task,mainTask,1,A,69,69,1,1247,6,i,p,r,122,394932,396179,122,f,NA,NA,NA,NA,NA,sub1
task,mainTask,1,A,70,70,0,1136,8,i,p,r,109,397962,399098,122,f,NA,NA,NA,NA,NA,sub1
task,mainTask,1,A,71,71,1,1060,1,i,p,r,109,400808,401868,109,f,NA,NA,NA,NA,NA,sub1
task,mainTask,1,A,72,72,0,1270,3,i,p,r,122,403836,405106,109,f,NA,NA,NA,NA,NA,sub1
task,mainTask,1,A,73,73,1,878,9,c,p,r,109,407160,408038,109,s,2,1,NA,NA,NA,sub1
task,mainTask,1,A,74,74,1,1094,2,c,p,r,122,410113,411207,122,s,2,2,NA,NA,NA,sub1
task,mainTask,1,A,75,75,1,1052,1,i,m,s,122,413277,414329,122,s,2,3,NA,NA,NA,sub1
task,mainTask,1,A,76,76,1,1256,3,i,p,s,109,416346,417602,109,s,2,4,NA,NA,NA,sub1
task,mainTask,1,A,77,77,1,1331,6,i,p,r,122,419770,421101,122,f,NA,NA,NA,NA,NA,sub1
task,mainTask,1,A,78,78,1,1268,3,i,p,r,109,423022,424290,109,f,NA,NA,NA,NA,NA,sub1
task,mainTask,1,A,79,79,1,1081,8,i,p,r,122,426149,427230,122,f,NA,NA,NA,NA,NA,sub1
task,mainTask,1,A,80,80,1,929,6,i,p,r,122,429122,430051,122,f,NA,NA,NA,NA,NA,sub1
task,mainTask,1,A,81,81,1,934,8,i,p,r,122,432175,433109,122,f,NA,NA,NA,NA,NA,sub1
task,mainTask,1,A,82,82,1,977,3,i,p,r,109,435127,436104,109,f,NA,NA,NA,NA,NA,sub1
task,mainTask,1,A,83,83,1,1158,4,c,p,r,122,438164,439322,122,s,2,1,NA,NA,NA,sub1
task,mainTask,1,A,84,84,1,1037,9,c,p,r,109,441325,442362,109,s,2,2,NA,NA,NA,sub1
task,mainTask,1,A,85,85,1,980,1,i,m,s,122,444436,445416,122,s,2,3,NA,NA,NA,sub1
task,mainTask,1,A,86,86,0,1121,3,i,p,s,122,447571,448692,109,s,2,4,NA,NA,NA,sub1
task,mainTask,1,A,87,87,1,1024,2,c,m,s,122,450664,451688,122,f,NA,NA,NA,NA,NA,sub1
task,mainTask,1,A,88,88,1,1365,3,i,m,r,122,453626,454991,122,f,NA,NA,NA,NA,NA,sub1
task,mainTask,1,A,89,89,1,1098,8,i,m,r,109,456842,457940,109,f,NA,NA,NA,NA,NA,sub1
task,mainTask,1,A,90,90,1,1391,1,i,m,r,122,459868,461259,122,f,NA,NA,NA,NA,NA,sub1
task,mainTask,1,A,91,91,1,1003,3,i,m,r,122,463042,464045,122,f,NA,NA,NA,NA,NA,sub1
task,mainTask,1,A,92,92,1,1111,6,i,m,r,109,465912,467023,109,f,NA,NA,NA,NA,NA,sub1
task,mainTask,1,A,93,93,1,1399,9,c,p,s,109,468993,470392,109,s,4,1,NA,NA,NA,sub1
task,mainTask,1,A,94,94,1,940,4,c,m,s,122,472384,473324,122,s,4,2,NA,NA,NA,sub1
task,mainTask,1,A,95,95,1,1262,6,i,m,r,109,475268,476530,109,s,4,3,NA,NA,NA,sub1
task,mainTask,1,A,96,96,1,1109,8,i,m,r,109,478628,479737,109,s,4,4,NA,NA,NA,sub1
task,mainTask,1,A,97,97,0,1210,7,c,p,s,122,481665,482875,109,f,NA,NA,NA,NA,NA,sub1
task,mainTask,1,A,98,98,1,1052,3,i,p,r,109,484897,485949,109,f,NA,NA,NA,NA,NA,sub1
task,mainTask,1,A,99,99,1,1067,8,i,p,r,122,487850,488917,122,f,NA,NA,NA,NA,NA,sub1
task,mainTask,1,A,100,100,1,1192,6,i,p,r,122,490992,492184,122,f,NA,NA,NA,NA,NA,sub1
task,mainTask,1,A,101,101,1,1047,8,i,p,r,122,494113,495160,122,f,NA,NA,NA,NA,NA,sub1
task,mainTask,1,A,102,102,1,1043,3,i,p,r,109,497112,498155,109,f,NA,NA,NA,NA,NA,sub1
task,mainTask,1,A,103,103,1,1140,1,i,m,s,122,500228,501368,122,s,1,1,NA,NA,NA,sub1
task,mainTask,1,A,104,104,1,1378,9,c,m,r,109,503155,504533,109,s,1,2,NA,NA,NA,sub1
task,mainTask,1,A,105,105,0,908,1,i,p,s,122,506476,507384,109,s,1,3,NA,NA,NA,sub1
task,mainTask,1,A,106,106,1,910,7,c,p,r,109,509419,510329,109,s,1,4,NA,NA,NA,sub1
task,mainTask,1,A,107,107,1,985,8,i,p,r,122,512221,513206,122,f,NA,NA,NA,NA,NA,sub1
task,mainTask,1,A,108,108,1,1120,3,i,p,r,109,515083,516203,109,f,NA,NA,NA,NA,NA,sub1
task,mainTask,1,A,109,109,1,1042,1,i,p,r,109,518115,519157,109,f,NA,NA,NA,NA,NA,sub1
task,mainTask,1,A,110,110,1,1201,6,i,p,r,122,521024,522225,122,f,NA,NA,NA,NA,NA,sub1
task,mainTask,1,A,111,111,1,1183,8,i,p,r,122,524000,525183,122,f,NA,NA,NA,NA,NA,sub1
task,mainTask,1,A,112,112,1,1156,6,i,p,r,122,527087,528243,122,f,NA,NA,NA,NA,NA,sub1
task,mainTask,1,A,113,113,1,1006,4,c,m,s,122,530351,531357,122,s,4,1,NA,NA,NA,sub1
task,mainTask,1,A,114,114,1,1067,9,c,p,s,109,533352,534419,109,s,4,2,NA,NA,NA,sub1
task,mainTask,1,A,115,115,1,1032,3,i,p,r,109,536320,537352,109,s,4,3,NA,NA,NA,sub1
task,mainTask,1,A,116,116,1,913,8,i,p,r,122,539928,540841,122,s,4,4,NA,NA,NA,sub1
task,mainTask,1,A,117,117,1,1054,6,i,p,r,122,542671,543725,122,f,NA,NA,NA,NA,NA,sub1
task,mainTask,1,A,118,118,1,891,8,i,p,r,122,545763,546654,122,f,NA,NA,NA,NA,NA,sub1
task,mainTask,1,A,119,119,1,1112,6,i,p,r,122,548910,550022,122,f,NA,NA,NA,NA,NA,sub1
task,mainTask,1,A,120,120,1,1074,8,i,p,r,122,552178,553252,122,f,NA,NA,NA,NA,NA,sub1
task,mainTask,1,A,121,121,1,971,6,i,p,r,122,555320,556291,122,f,NA,NA,NA,NA,NA,sub1
task,mainTask,1,A,122,122,1,1113,8,i,p,r,122,558368,559481,122,f,NA,NA,NA,NA,NA,sub1
task,mainTask,1,A,123,123,1,1168,3,i,p,r,109,561412,562580,109,s,3,1,NA,NA,NA,sub1
task,mainTask,1,A,124,124,0,1132,9,c,m,s,122,564596,565728,109,s,3,2,NA,NA,NA,sub1
task,mainTask,1,A,125,125,1,1450,8,i,m,r,109,567713,569163,109,s,3,3,NA,NA,NA,sub1
task,mainTask,1,A,126,126,0,NA,7,c,p,s,NA,571178,NA,109,s,3,4,NA,NA,NA,sub1
task,mainTask,1,A,127,127,1,928,2,c,m,s,122,574516,575444,122,f,NA,NA,NA,NA,NA,sub1
task,mainTask,1,A,128,128,1,995,8,i,m,r,109,577435,578430,109,f,NA,NA,NA,NA,NA,sub1
task,mainTask,1,A,129,129,1,956,3,i,m,r,122,580494,581450,122,f,NA,NA,NA,NA,NA,sub1
task,mainTask,1,A,130,130,1,1204,1,i,m,r,122,583509,584713,122,f,NA,NA,NA,NA,NA,sub1
task,mainTask,1,A,131,131,1,929,8,i,m,r,109,586898,587827,109,f,NA,NA,NA,NA,NA,sub1
task,mainTask,1,A,132,132,1,1102,6,i,m,r,109,589887,590989,109,f,NA,NA,NA,NA,NA,sub1
task,mainTask,1,A,133,133,1,941,9,c,m,r,109,592911,593852,109,s,2,1,NA,NA,NA,sub1
task,mainTask,1,A,134,134,1,990,7,c,m,r,109,595845,596835,109,s,2,2,NA,NA,NA,sub1
task,mainTask,1,A,135,135,1,1292,6,i,p,s,122,598775,600067,122,s,2,3,NA,NA,NA,sub1
task,mainTask,1,A,136,136,1,887,3,i,m,s,122,602061,602948,122,s,2,4,NA,NA,NA,sub1
task,mainTask,1,A,137,137,1,889,6,i,m,r,109,604851,605740,109,f,NA,NA,NA,NA,NA,sub1
task,mainTask,1,A,138,138,1,987,8,i,m,r,109,607737,608724,109,f,NA,NA,NA,NA,NA,sub1
task,mainTask,1,A,139,139,1,1015,3,i,m,r,122,610647,611662,122,f,NA,NA,NA,NA,NA,sub1
task,mainTask,1,A,140,140,1,1056,8,i,m,r,109,613559,614615,109,f,NA,NA,NA,NA,NA,sub1
task,mainTask,1,A,141,141,1,837,1,i,m,r,122,616559,617396,122,f,NA,NA,NA,NA,NA,sub1
task,mainTask,1,A,142,142,1,1010,6,i,m,r,109,619580,620590,109,f,NA,NA,NA,NA,NA,sub1
task,mainTask,1,A,143,143,1,853,3,i,m,r,122,622696,623549,122,s,3,1,NA,NA,NA,sub1
task,mainTask,1,A,144,144,1,1047,9,c,p,s,109,625521,626568,109,s,3,2,NA,NA,NA,sub1
task,mainTask,1,A,145,145,1,1160,6,i,p,r,122,628837,629997,122,s,3,3,NA,NA,NA,sub1
task,mainTask,1,A,146,146,1,914,4,c,m,s,122,631855,632769,122,s,3,4,NA,NA,NA,sub1
task,mainTask,1,A,147,147,1,814,3,i,m,r,122,634744,635558,122,f,NA,NA,NA,NA,NA,sub1
task,mainTask,1,A,148,148,1,1076,6,i,m,r,109,637648,638724,109,f,NA,NA,NA,NA,NA,sub1
task,mainTask,1,A,149,149,1,798,1,i,m,r,122,640807,641605,122,f,NA,NA,NA,NA,NA,sub1
task,mainTask,1,A,150,150,1,1097,6,i,m,r,109,643501,644598,109,f,NA,NA,NA,NA,NA,sub1
task,mainTask,1,A,151,151,1,1002,3,i,m,r,122,646460,647462,122,f,NA,NA,NA,NA,NA,sub1
task,mainTask,1,A,152,152,1,941,6,i,m,r,109,649608,650549,109,s,3,1,NA,NA,NA,sub1
task,mainTask,1,A,153,153,1,1201,9,c,p,s,109,652442,653643,109,s,3,2,NA,NA,NA,sub1
task,mainTask,1,A,154,154,1,1192,3,i,p,r,109,655528,656720,109,s,3,3,NA,NA,NA,sub1
task,mainTask,1,A,155,155,1,852,4,c,m,s,122,658480,659332,122,s,3,4,NA,NA,NA,sub1
task,mainTask,1,A,156,156,1,815,3,i,m,r,122,661456,662271,122,f,NA,NA,NA,NA,NA,sub1
task,mainTask,1,A,157,157,1,816,6,i,m,r,109,664135,664951,109,f,NA,NA,NA,NA,NA,sub1
task,mainTask,1,A,158,158,1,976,1,i,m,r,122,666999,667975,122,f,NA,NA,NA,NA,NA,sub1
task,mainTask,1,A,159,159,1,1073,6,i,m,r,109,670002,671075,109,f,NA,NA,NA,NA,NA,sub1
task,mainTask,1,A,160,160,1,977,8,i,m,r,109,672927,673904,109,f,NA,NA,NA,NA,NA,sub1
main1-2,blockBreak,1,NA,NA,NA,NA,NA,NA,NA,NA,NA,NA,NA,NA,NA,NA,NA,NA,675471,684440,8969,sub1
task,mainTask,2,B,161,1,0,NA,1,i,p,n,NA,688084,NA,109,f,NA,NA,NA,NA,NA,sub1
task,mainTask,2,B,162,2,1,976,8,i,m,s,109,691569,692545,109,f,NA,NA,NA,NA,NA,sub1
task,mainTask,2,B,163,3,1,803,3,i,p,s,109,694549,695352,109,f,NA,NA,NA,NA,NA,sub1
task,mainTask,2,B,164,4,1,1020,8,i,m,s,109,697328,698348,109,f,NA,NA,NA,NA,NA,sub1
task,mainTask,2,B,165,5,1,844,3,i,p,s,109,700633,701477,109,f,NA,NA,NA,NA,NA,sub1
task,mainTask,2,B,166,6,1,887,7,c,m,s,109,703473,704360,109,s,4,1,NA,NA,NA,sub1
task,mainTask,2,B,167,7,1,963,4,c,p,s,122,706297,707260,122,s,4,2,NA,NA,NA,sub1
task,mainTask,2,B,168,8,1,921,3,i,p,r,109,709115,710036,109,s,4,3,NA,NA,NA,sub1
task,mainTask,2,B,169,9,1,760,1,i,p,r,109,712040,712800,109,s,4,4,NA,NA,NA,sub1
task,mainTask,2,B,170,10,1,861,2,c,p,r,122,714764,715625,122,f,NA,NA,NA,NA,NA,sub1
task,mainTask,2,B,171,11,1,954,8,i,m,s,109,717591,718545,109,f,NA,NA,NA,NA,NA,sub1
task,mainTask,2,B,172,12,1,999,6,i,p,s,122,720435,721434,122,f,NA,NA,NA,NA,NA,sub1
task,mainTask,2,B,173,13,1,979,1,i,m,s,122,723485,724464,122,f,NA,NA,NA,NA,NA,sub1
task,mainTask,2,B,174,14,1,1098,3,i,p,s,109,726488,727586,109,f,NA,NA,NA,NA,NA,sub1
task,mainTask,2,B,175,15,1,806,1,i,m,s,122,729646,730452,122,f,NA,NA,NA,NA,NA,sub1
task,mainTask,2,B,176,16,1,846,8,i,m,r,109,732448,733294,109,s,3,1,NA,NA,NA,sub1
task,mainTask,2,B,177,17,1,824,7,c,p,s,109,735201,736025,109,s,3,2,NA,NA,NA,sub1
task,mainTask,2,B,178,18,0,809,1,i,p,r,122,737852,738661,109,s,3,3,NA,NA,NA,sub1
task,mainTask,2,B,179,19,1,1121,4,c,m,s,122,740609,741730,122,s,3,4,NA,NA,NA,sub1
task,mainTask,2,B,180,20,0,882,6,i,p,s,109,743768,744650,122,f,NA,NA,NA,NA,NA,sub1
task,mainTask,2,B,181,21,1,936,3,i,m,s,122,746625,747561,122,f,NA,NA,NA,NA,NA,sub1
task,mainTask,2,B,182,22,1,1194,1,i,p,s,109,749608,750802,109,f,NA,NA,NA,NA,NA,sub1
task,mainTask,2,B,183,23,1,1118,6,i,m,s,109,752748,753866,109,f,NA,NA,NA,NA,NA,sub1
task,mainTask,2,B,184,24,1,943,3,i,p,s,109,755905,756848,109,f,NA,NA,NA,NA,NA,sub1
task,mainTask,2,B,185,25,0,1074,6,i,m,s,122,758735,759809,109,s,1,1,NA,NA,NA,sub1
task,mainTask,2,B,186,26,0,1248,7,c,m,r,122,762048,763296,109,s,1,2,NA,NA,NA,sub1
task,mainTask,2,B,187,27,1,859,1,i,p,s,109,765199,766058,109,s,1,3,NA,NA,NA,sub1
task,mainTask,2,B,188,28,1,940,7,c,p,r,109,767918,768858,109,s,1,4,NA,NA,NA,sub1
task,mainTask,2,B,189,29,1,1076,1,i,m,s,122,770782,771858,122,f,NA,NA,NA,NA,NA,sub1
task,mainTask,2,B,190,30,1,1141,8,i,p,s,122,773695,774836,122,f,NA,NA,NA,NA,NA,sub1
task,mainTask,2,B,191,31,1,874,1,i,m,s,122,776692,777566,122,f,NA,NA,NA,NA,NA,sub1
task,mainTask,2,B,192,32,0,955,8,i,p,s,109,779488,780443,122,f,NA,NA,NA,NA,NA,sub1
task,mainTask,2,B,193,33,1,1201,6,i,m,s,109,782297,783498,109,f,NA,NA,NA,NA,NA,sub1
task,mainTask,2,B,194,34,0,837,8,i,p,s,109,785419,786256,122,f,NA,NA,NA,NA,NA,sub1
task,mainTask,2,B,195,35,1,1439,2,c,p,r,122,788093,789532,122,s,2,1,NA,NA,NA,sub1
task,mainTask,2,B,196,36,1,889,7,c,p,r,109,791343,792232,109,s,2,2,NA,NA,NA,sub1
task,mainTask,2,B,197,37,1,1159,3,i,m,s,122,794108,795267,122,s,2,3,NA,NA,NA,sub1
task,mainTask,2,B,198,38,0,905,6,i,p,s,109,797288,798193,122,s,2,4,NA,NA,NA,sub1
task,mainTask,2,B,199,39,1,1017,1,i,m,s,122,800161,801178,122,f,NA,NA,NA,NA,NA,sub1
task,mainTask,2,B,200,40,1,997,3,i,p,s,109,802967,803964,109,f,NA,NA,NA,NA,NA,sub1
task,mainTask,2,B,201,41,1,1259,8,i,m,s,109,805839,807098,109,f,NA,NA,NA,NA,NA,sub1
task,mainTask,2,B,202,42,0,958,1,i,p,s,122,809039,809997,109,f,NA,NA,NA,NA,NA,sub1
task,mainTask,2,B,203,43,1,1269,3,i,m,s,122,811783,813052,122,f,NA,NA,NA,NA,NA,sub1
task,mainTask,2,B,204,44,0,970,6,i,p,s,109,814967,815937,122,f,NA,NA,NA,NA,NA,sub1
task,mainTask,2,B,205,45,1,843,3,i,m,s,122,817815,818658,122,s,1,1,NA,NA,NA,sub1
task,mainTask,2,B,206,46,1,1010,7,c,m,r,109,820616,821626,109,s,1,2,NA,NA,NA,sub1
task,mainTask,2,B,207,47,0,961,1,i,p,s,122,823552,824513,109,s,1,3,NA,NA,NA,sub1
task,mainTask,2,B,208,48,1,973,2,c,p,r,122,826685,827658,122,s,1,4,NA,NA,NA,sub1
task,mainTask,2,B,209,49,1,1082,6,i,m,s,109,829512,830594,109,f,NA,NA,NA,NA,NA,sub1
task,mainTask,2,B,210,50,0,1010,8,i,p,s,109,832592,833602,122,f,NA,NA,NA,NA,NA,sub1
task,mainTask,2,B,211,51,1,1037,6,i,m,s,109,835634,836671,109,f,NA,NA,NA,NA,NA,sub1
task,mainTask,2,B,212,52,1,1117,3,i,p,s,109,838616,839733,109,f,NA,NA,NA,NA,NA,sub1
task,mainTask,2,B,213,53,1,999,6,i,m,s,109,841584,842583,109,f,NA,NA,NA,NA,NA,sub1
task,mainTask,2,B,214,54,1,971,1,i,p,s,109,844535,845506,109,f,NA,NA,NA,NA,NA,sub1
task,mainTask,2,B,215,55,1,1004,9,c,m,s,109,847522,848526,109,s,4,1,NA,NA,NA,sub1
task,mainTask,2,B,216,56,1,1014,2,c,p,s,122,850424,851438,122,s,4,2,NA,NA,NA,sub1
task,mainTask,2,B,217,57,1,835,1,i,p,r,109,853375,854210,109,s,4,3,NA,NA,NA,sub1
task,mainTask,2,B,218,58,1,1004,8,i,p,r,122,856103,857107,122,s,4,4,NA,NA,NA,sub1
task,mainTask,2,B,219,59,1,1020,6,i,m,s,109,859048,860068,109,f,NA,NA,NA,NA,NA,sub1
task,mainTask,2,B,220,60,1,946,1,i,p,s,109,861987,862933,109,f,NA,NA,NA,NA,NA,sub1
task,mainTask,2,B,221,61,1,968,6,i,m,s,109,864952,865920,109,f,NA,NA,NA,NA,NA,sub1
task,mainTask,2,B,222,62,1,1021,8,i,p,s,122,867854,868875,122,f,NA,NA,NA,NA,NA,sub1
task,mainTask,2,B,223,63,0,NA,3,i,m,s,NA,871132,NA,122,f,NA,NA,NA,NA,NA,sub1
task,mainTask,2,B,224,64,1,1043,8,i,p,s,122,874353,875396,122,f,NA,NA,NA,NA,NA,sub1
task,mainTask,2,B,225,65,1,857,3,i,m,s,122,877305,878162,122,s,1,1,NA,NA,NA,sub1
task,mainTask,2,B,226,66,1,1011,7,c,m,r,109,880175,881186,109,s,1,2,NA,NA,NA,sub1
task,mainTask,2,B,227,67,1,964,8,i,p,s,122,883136,884100,122,s,1,3,NA,NA,NA,sub1
task,mainTask,2,B,228,68,1,1277,4,c,p,r,122,886120,887397,122,s,1,4,NA,NA,NA,sub1
task,mainTask,2,B,229,69,1,855,2,c,p,r,122,889344,890199,122,f,NA,NA,NA,NA,NA,sub1
task,mainTask,2,B,230,70,1,905,8,i,m,s,109,892088,892993,109,f,NA,NA,NA,NA,NA,sub1
task,mainTask,2,B,231,71,0,940,1,i,p,s,122,894848,895788,109,f,NA,NA,NA,NA,NA,sub1
task,mainTask,2,B,232,72,1,1104,3,i,m,s,122,897672,898776,122,f,NA,NA,NA,NA,NA,sub1
task,mainTask,2,B,233,73,1,1053,8,i,p,s,122,900681,901734,122,f,NA,NA,NA,NA,NA,sub1
task,mainTask,2,B,234,74,1,1100,3,i,m,s,122,903737,904837,122,f,NA,NA,NA,NA,NA,sub1
task,mainTask,2,B,235,75,1,954,7,c,m,r,109,906680,907634,109,s,2,1,NA,NA,NA,sub1
task,mainTask,2,B,236,76,1,877,4,c,m,r,122,909712,910589,122,s,2,2,NA,NA,NA,sub1
task,mainTask,2,B,237,77,1,1042,1,i,p,s,109,912600,913642,109,s,2,3,NA,NA,NA,sub1
task,mainTask,2,B,238,78,1,1092,3,i,m,s,122,915577,916669,122,s,2,4,NA,NA,NA,sub1
task,mainTask,2,B,239,79,1,988,7,c,m,r,109,918738,919726,109,f,NA,NA,NA,NA,NA,sub1
task,mainTask,2,B,240,80,1,1013,3,i,p,s,109,921700,922713,109,f,NA,NA,NA,NA,NA,sub1
task,mainTask,2,B,241,81,1,925,8,i,m,s,109,924568,925493,109,f,NA,NA,NA,NA,NA,sub1
task,mainTask,2,B,242,82,1,1009,1,i,p,s,109,927449,928458,109,f,NA,NA,NA,NA,NA,sub1
task,mainTask,2,B,243,83,1,991,3,i,m,s,122,930327,931318,122,f,NA,NA,NA,NA,NA,sub1
task,mainTask,2,B,244,84,1,934,4,c,m,r,122,933264,934198,122,s,2,1,NA,NA,NA,sub1
task,mainTask,2,B,245,85,1,1050,2,c,m,r,122,936187,937237,122,s,2,2,NA,NA,NA,sub1
task,mainTask,2,B,246,86,1,1187,6,i,p,s,122,939135,940322,122,s,2,3,NA,NA,NA,sub1
task,mainTask,2,B,247,87,1,990,8,i,m,s,109,942191,943181,109,s,2,4,NA,NA,NA,sub1
task,mainTask,2,B,248,88,1,813,9,c,m,r,109,945048,945861,109,f,NA,NA,NA,NA,NA,sub1
task,mainTask,2,B,249,89,1,1050,1,i,p,s,109,947883,948933,109,f,NA,NA,NA,NA,NA,sub1
task,mainTask,2,B,250,90,1,991,8,i,m,s,109,950808,951799,109,f,NA,NA,NA,NA,NA,sub1
task,mainTask,2,B,251,91,1,1067,6,i,p,s,122,953720,954787,122,f,NA,NA,NA,NA,NA,sub1
task,mainTask,2,B,252,92,1,982,1,i,m,s,122,956735,957717,122,f,NA,NA,NA,NA,NA,sub1
task,mainTask,2,B,253,93,1,1084,3,i,p,s,109,959663,960747,109,f,NA,NA,NA,NA,NA,sub1
task,mainTask,2,B,254,94,1,1024,4,c,m,s,122,962720,963744,122,s,4,1,NA,NA,NA,sub1
task,mainTask,2,B,255,95,1,914,7,c,p,s,109,965627,966541,109,s,4,2,NA,NA,NA,sub1
task,mainTask,2,B,256,96,1,1097,3,i,p,r,109,968582,969679,109,s,4,3,NA,NA,NA,sub1
task,mainTask,2,B,257,97,1,1045,1,i,p,r,109,971733,972778,109,s,4,4,NA,NA,NA,sub1
task,mainTask,2,B,258,98,1,966,8,i,m,s,109,974728,975694,109,f,NA,NA,NA,NA,NA,sub1
task,mainTask,2,B,259,99,1,1169,3,i,p,s,109,977647,978816,109,f,NA,NA,NA,NA,NA,sub1
task,mainTask,2,B,260,100,1,1231,8,i,m,s,109,980794,982025,109,f,NA,NA,NA,NA,NA,sub1
task,mainTask,2,B,261,101,1,995,3,i,p,s,109,984090,985085,109,f,NA,NA,NA,NA,NA,sub1
task,mainTask,2,B,262,102,1,969,8,i,m,s,109,987103,988072,109,f,NA,NA,NA,NA,NA,sub1
task,mainTask,2,B,263,103,1,940,3,i,p,s,109,990128,991068,109,s,1,1,NA,NA,NA,sub1
task,mainTask,2,B,264,104,1,882,9,c,p,r,109,993061,993943,109,s,1,2,NA,NA,NA,sub1
task,mainTask,2,B,265,105,1,937,6,i,m,s,109,995874,996811,109,s,1,3,NA,NA,NA,sub1
task,mainTask,2,B,266,106,1,940,2,c,m,r,122,998631,999571,122,s,1,4,NA,NA,NA,sub1
task,mainTask,2,B,267,107,1,945,9,c,m,r,109,1001511,1002456,109,f,NA,NA,NA,NA,NA,sub1
task,mainTask,2,B,268,108,1,1038,6,i,p,s,122,1004521,1005559,122,f,NA,NA,NA,NA,NA,sub1
task,mainTask,2,B,269,109,1,901,8,i,m,s,109,1007456,1008357,109,f,NA,NA,NA,NA,NA,sub1
task,mainTask,2,B,270,110,1,992,1,i,p,s,109,1010264,1011256,109,f,NA,NA,NA,NA,NA,sub1
task,mainTask,2,B,271,111,1,1045,3,i,m,s,122,1013255,1014300,122,f,NA,NA,NA,NA,NA,sub1
task,mainTask,2,B,272,112,1,1082,2,c,p,s,122,1016159,1017241,122,s,4,1,NA,NA,NA,sub1
task,mainTask,2,B,273,113,1,1219,7,c,m,s,109,1019145,1020364,109,s,4,2,NA,NA,NA,sub1
task,mainTask,2,B,274,114,1,967,3,i,m,r,122,1022418,1023385,122,s,4,3,NA,NA,NA,sub1
task,mainTask,2,B,275,115,1,874,1,i,m,r,122,1025432,1026306,122,s,4,4,NA,NA,NA,sub1
task,mainTask,2,B,276,116,1,992,9,c,m,r,109,1028328,1029320,109,f,NA,NA,NA,NA,NA,sub1
task,mainTask,2,B,277,117,1,972,1,i,p,s,109,1031199,1032171,109,f,NA,NA,NA,NA,NA,sub1
task,mainTask,2,B,278,118,1,1173,3,i,m,s,122,1034176,1035349,122,f,NA,NA,NA,NA,NA,sub1
task,mainTask,2,B,279,119,0,952,6,i,p,s,109,1037208,1038160,122,f,NA,NA,NA,NA,NA,sub1
task,mainTask,2,B,280,120,1,979,3,i,m,s,122,1040576,1041555,122,f,NA,NA,NA,NA,NA,sub1
task,mainTask,2,B,281,121,1,1076,1,i,p,s,109,1043512,1044588,109,f,NA,NA,NA,NA,NA,sub1
task,mainTask,2,B,282,122,1,1072,6,i,p,r,122,1046621,1047693,122,s,3,1,NA,NA,NA,sub1
task,mainTask,2,B,283,123,1,1008,2,c,m,s,122,1049654,1050662,122,s,3,2,NA,NA,NA,sub1
task,mainTask,2,B,284,124,1,1062,8,i,m,r,109,1052588,1053650,109,s,3,3,NA,NA,NA,sub1
task,mainTask,2,B,285,125,1,1108,9,c,p,s,109,1055626,1056734,109,s,3,4,NA,NA,NA,sub1
task,mainTask,2,B,286,126,1,881,1,i,m,s,122,1058611,1059492,122,f,NA,NA,NA,NA,NA,sub1
task,mainTask,2,B,287,127,0,893,8,i,p,s,109,1061431,1062324,122,f,NA,NA,NA,NA,NA,sub1
task,mainTask,2,B,288,128,1,937,3,i,m,s,122,1065079,1066016,122,f,NA,NA,NA,NA,NA,sub1
task,mainTask,2,B,289,129,1,983,8,i,p,s,122,1067900,1068883,122,f,NA,NA,NA,NA,NA,sub1
task,mainTask,2,B,290,130,1,1305,6,i,m,s,109,1070744,1072049,109,f,NA,NA,NA,NA,NA,sub1
task,mainTask,2,B,291,131,1,938,1,i,p,s,109,1074052,1074990,109,f,NA,NA,NA,NA,NA,sub1
task,mainTask,2,B,292,132,1,1052,2,c,p,r,122,1077080,1078132,122,s,2,1,NA,NA,NA,sub1
task,mainTask,2,B,293,133,1,856,7,c,p,r,109,1080096,1080952,109,s,2,2,NA,NA,NA,sub1
task,mainTask,2,B,294,134,1,986,6,i,m,s,109,1082879,1083865,109,s,2,3,NA,NA,NA,sub1
task,mainTask,2,B,295,135,0,877,1,i,p,s,122,1085943,1086820,109,s,2,4,NA,NA,NA,sub1
task,mainTask,2,B,296,136,1,1067,4,c,p,r,122,1088903,1089970,122,f,NA,NA,NA,NA,NA,sub1
task,mainTask,2,B,297,137,1,1004,6,i,m,s,109,1091865,1092869,109,f,NA,NA,NA,NA,NA,sub1
task,mainTask,2,B,298,138,1,1125,8,i,p,s,122,1094824,1095949,122,f,NA,NA,NA,NA,NA,sub1
task,mainTask,2,B,299,139,1,1205,1,i,m,s,122,1097928,1099133,122,f,NA,NA,NA,NA,NA,sub1
task,mainTask,2,B,300,140,1,1195,3,i,p,s,109,1101001,1102196,109,f,NA,NA,NA,NA,NA,sub1
task,mainTask,2,B,301,141,1,952,8,i,m,s,109,1104080,1105032,109,f,NA,NA,NA,NA,NA,sub1
task,mainTask,2,B,302,142,1,939,6,i,m,r,109,1107000,1107939,109,s,3,1,NA,NA,NA,sub1
task,mainTask,2,B,303,143,1,906,9,c,p,s,109,1109901,1110807,109,s,3,2,NA,NA,NA,sub1
task,mainTask,2,B,304,144,1,1214,8,i,p,r,122,1112924,1114138,122,s,3,3,NA,NA,NA,sub1
task,mainTask,2,B,305,145,1,1073,4,c,m,s,122,1116225,1117298,122,s,3,4,NA,NA,NA,sub1
task,mainTask,2,B,306,146,1,893,2,c,m,r,122,1119373,1120266,122,f,NA,NA,NA,NA,NA,sub1
task,mainTask,2,B,307,147,1,1332,8,i,p,s,122,1122129,1123461,122,f,NA,NA,NA,NA,NA,sub1
task,mainTask,2,B,308,148,1,1014,1,i,m,s,122,1125509,1126523,122,f,NA,NA,NA,NA,NA,sub1
task,mainTask,2,B,309,149,1,1182,8,i,p,s,122,1128568,1129750,122,f,NA,NA,NA,NA,NA,sub1
task,mainTask,2,B,310,150,1,1032,3,i,m,s,122,1132192,1133224,122,f,NA,NA,NA,NA,NA,sub1
task,mainTask,2,B,311,151,1,1239,8,i,m,r,109,1135202,1136441,109,s,3,1,NA,NA,NA,sub1
task,mainTask,2,B,312,152,1,1001,4,c,p,s,122,1138484,1139485,122,s,3,2,NA,NA,NA,sub1
task,mainTask,2,B,313,153,1,1024,6,i,p,r,122,1141612,1142636,122,s,3,3,NA,NA,NA,sub1
task,mainTask,2,B,314,154,1,951,7,c,m,s,109,1144730,1145681,109,s,3,4,NA,NA,NA,sub1
task,mainTask,2,B,315,155,0,855,1,i,p,s,122,1147735,1148590,109,f,NA,NA,NA,NA,NA,sub1
task,mainTask,2,B,316,156,1,929,8,i,m,s,109,1150718,1151647,109,f,NA,NA,NA,NA,NA,sub1
task,mainTask,2,B,317,157,0,950,6,i,p,s,109,1153610,1154560,122,f,NA,NA,NA,NA,NA,sub1
task,mainTask,2,B,318,158,1,1166,8,i,m,s,109,1156840,1158006,109,f,NA,NA,NA,NA,NA,sub1
task,mainTask,2,B,319,159,1,1215,3,i,p,s,109,1160111,1161326,109,f,NA,NA,NA,NA,NA,sub1
task,mainTask,2,B,320,160,1,1238,6,i,m,s,109,1163339,1164577,109,f,NA,NA,NA,NA,NA,sub1
main1-2,blockBreak,2,NA,NA,NA,NA,NA,NA,NA,NA,NA,NA,NA,NA,NA,NA,NA,NA,1166112,1234203,68091,sub1
task,mainTask,3,D,321,1,0,NA,2,c,p,n,NA,1237757,NA,122,f,NA,NA,NA,NA,NA,sub1
task,mainTask,3,D,322,2,1,1044,7,c,m,s,109,1241073,1242117,109,f,NA,NA,NA,NA,NA,sub1
task,mainTask,3,D,323,3,1,1118,9,c,p,s,109,1243969,1245087,109,f,NA,NA,NA,NA,NA,sub1
task,mainTask,3,D,324,4,1,1040,7,c,m,s,109,1247095,1248135,109,f,NA,NA,NA,NA,NA,sub1
task,mainTask,3,D,325,5,1,929,9,c,p,s,109,1250112,1251041,109,f,NA,NA,NA,NA,NA,sub1
task,mainTask,3,D,326,6,1,901,4,c,m,s,122,1252979,1253880,122,s,4,1,NA,NA,NA,sub1
task,mainTask,3,D,327,7,1,1039,7,c,p,s,109,1255746,1256785,109,s,4,2,NA,NA,NA,sub1
task,mainTask,3,D,328,8,1,1111,8,i,p,r,122,1258713,1259824,122,s,4,3,NA,NA,NA,sub1
task,mainTask,3,D,329,9,1,822,3,i,p,r,109,1261889,1262711,109,s,4,4,NA,NA,NA,sub1
task,mainTask,3,D,330,10,1,1012,6,i,p,r,122,1264632,1265644,122,f,NA,NA,NA,NA,NA,sub1
task,mainTask,3,D,331,11,1,1031,9,c,m,s,109,1267688,1268719,109,f,NA,NA,NA,NA,NA,sub1
task,mainTask,3,D,332,12,1,1099,4,c,p,s,122,1270739,1271838,122,f,NA,NA,NA,NA,NA,sub1
task,mainTask,3,D,333,13,1,1115,2,c,m,s,122,1273864,1274979,122,f,NA,NA,NA,NA,NA,sub1
task,mainTask,3,D,334,14,1,1479,9,c,p,s,109,1277048,1278527,109,f,NA,NA,NA,NA,NA,sub1
task,mainTask,3,D,335,15,1,868,3,i,p,r,109,1280437,1281305,109,s,3,1,NA,NA,NA,sub1
task,mainTask,3,D,336,16,1,999,7,c,m,s,109,1283405,1284404,109,s,3,2,NA,NA,NA,sub1
task,mainTask,3,D,337,17,1,973,3,i,m,r,122,1286329,1287302,122,s,3,3,NA,NA,NA,sub1
task,mainTask,3,D,338,18,1,1142,9,c,p,s,109,1289329,1290471,109,s,3,4,NA,NA,NA,sub1
task,mainTask,3,D,339,19,1,842,2,c,m,s,122,1292392,1293234,122,f,NA,NA,NA,NA,NA,sub1
task,mainTask,3,D,340,20,1,987,4,c,p,s,122,1295173,1296160,122,f,NA,NA,NA,NA,NA,sub1
task,mainTask,3,D,341,21,1,1018,7,c,m,s,109,1297987,1299005,109,f,NA,NA,NA,NA,NA,sub1
task,mainTask,3,D,342,22,1,831,2,c,p,s,122,1300973,1301804,122,f,NA,NA,NA,NA,NA,sub1
task,mainTask,3,D,343,23,1,831,9,c,m,s,109,1303631,1304462,109,f,NA,NA,NA,NA,NA,sub1
task,mainTask,3,D,344,24,0,801,1,i,p,s,122,1306495,1307296,109,s,1,1,NA,NA,NA,sub1
task,mainTask,3,D,345,25,1,936,7,c,p,r,109,1309912,1310848,109,s,1,2,NA,NA,NA,sub1
task,mainTask,3,D,346,26,1,1186,6,i,m,s,109,1312737,1313923,109,s,1,3,NA,NA,NA,sub1
task,mainTask,3,D,347,27,1,896,7,c,m,r,109,1315830,1316726,109,s,1,4,NA,NA,NA,sub1
task,mainTask,3,D,348,28,1,946,1,i,m,r,122,1318633,1319579,122,f,NA,NA,NA,NA,NA,sub1
task,mainTask,3,D,349,29,1,904,9,c,p,s,109,1321671,1322575,109,f,NA,NA,NA,NA,NA,sub1
task,mainTask,3,D,350,30,1,855,4,c,m,s,122,1324607,1325462,122,f,NA,NA,NA,NA,NA,sub1
task,mainTask,3,D,351,31,1,1222,2,c,p,s,122,1327390,1328612,122,f,NA,NA,NA,NA,NA,sub1
task,mainTask,3,D,352,32,1,975,4,c,m,s,122,1330689,1331664,122,f,NA,NA,NA,NA,NA,sub1
task,mainTask,3,D,353,33,1,1259,7,c,p,s,109,1333800,1335059,109,f,NA,NA,NA,NA,NA,sub1
task,mainTask,3,D,354,34,1,1053,2,c,p,r,122,1337028,1338081,122,s,2,1,NA,NA,NA,sub1
task,mainTask,3,D,355,35,1,985,4,c,p,r,122,1340032,1341017,122,s,2,2,NA,NA,NA,sub1
task,mainTask,3,D,356,36,1,1350,1,i,m,s,122,1343050,1344400,122,s,2,3,NA,NA,NA,sub1
task,mainTask,3,D,357,37,1,1016,3,i,p,s,109,1346201,1347217,109,s,2,4,NA,NA,NA,sub1
task,mainTask,3,D,358,38,1,1024,4,c,m,s,122,1349306,1350330,122,f,NA,NA,NA,NA,NA,sub1
task,mainTask,3,D,359,39,1,996,2,c,p,s,122,1352146,1353142,122,f,NA,NA,NA,NA,NA,sub1
task,mainTask,3,D,360,40,1,1110,4,c,m,s,122,1355216,1356326,122,f,NA,NA,NA,NA,NA,sub1
task,mainTask,3,D,361,41,1,946,9,c,p,s,109,1358201,1359147,109,f,NA,NA,NA,NA,NA,sub1
task,mainTask,3,D,362,42,1,858,2,c,m,s,122,1361167,1362025,122,f,NA,NA,NA,NA,NA,sub1
task,mainTask,3,D,363,43,1,1425,4,c,p,s,122,1364104,1365529,122,f,NA,NA,NA,NA,NA,sub1
task,mainTask,3,D,364,44,1,929,6,i,m,s,109,1367526,1368455,109,s,1,1,NA,NA,NA,sub1
task,mainTask,3,D,365,45,1,1035,9,c,m,r,109,1370506,1371541,109,s,1,2,NA,NA,NA,sub1
task,mainTask,3,D,366,46,1,1172,8,i,p,s,122,1373552,1374724,122,s,1,3,NA,NA,NA,sub1
task,mainTask,3,D,367,47,1,1025,9,c,p,r,109,1376928,1377953,109,s,1,4,NA,NA,NA,sub1
task,mainTask,3,D,368,48,1,973,7,c,m,s,109,1379891,1380864,109,f,NA,NA,NA,NA,NA,sub1
task,mainTask,3,D,369,49,1,983,4,c,p,s,122,1382784,1383767,122,f,NA,NA,NA,NA,NA,sub1
task,mainTask,3,D,370,50,1,945,7,c,m,s,109,1386002,1386947,109,f,NA,NA,NA,NA,NA,sub1
task,mainTask,3,D,371,51,1,1112,2,c,p,s,122,1388912,1390024,122,f,NA,NA,NA,NA,NA,sub1
task,mainTask,3,D,372,52,1,954,7,c,m,s,109,1391876,1392830,109,f,NA,NA,NA,NA,NA,sub1
task,mainTask,3,D,373,53,1,832,2,c,p,s,122,1394697,1395529,122,f,NA,NA,NA,NA,NA,sub1
task,mainTask,3,D,374,54,1,971,4,c,m,s,122,1397522,1398493,122,s,4,1,NA,NA,NA,sub1
task,mainTask,3,D,375,55,1,1053,7,c,p,s,109,1400327,1401380,109,s,4,2,NA,NA,NA,sub1
task,mainTask,3,D,376,56,1,1035,1,i,p,r,109,1403172,1404207,109,s,4,3,NA,NA,NA,sub1
task,mainTask,3,D,377,57,1,1092,8,i,p,r,122,1406334,1407426,122,s,4,4,NA,NA,NA,sub1
task,mainTask,3,D,378,58,0,891,1,i,p,r,122,1409487,1410378,109,f,NA,NA,NA,NA,NA,sub1
task,mainTask,3,D,379,59,1,1050,7,c,m,s,109,1412532,1413582,109,f,NA,NA,NA,NA,NA,sub1
task,mainTask,3,D,380,60,1,1110,4,c,p,s,122,1415662,1416772,122,f,NA,NA,NA,NA,NA,sub1
task,mainTask,3,D,381,61,1,1023,7,c,m,s,109,1418666,1419689,109,f,NA,NA,NA,NA,NA,sub1
task,mainTask,3,D,382,62,1,984,4,c,p,s,122,1421918,1422902,122,f,NA,NA,NA,NA,NA,sub1
task,mainTask,3,D,383,63,1,1079,2,c,m,s,122,1424820,1425899,122,f,NA,NA,NA,NA,NA,sub1
task,mainTask,3,D,384,64,1,1472,6,i,p,s,122,1427859,1429331,122,s,1,1,NA,NA,NA,sub1
task,mainTask,3,D,385,65,1,1125,4,c,p,r,122,1431191,1432316,122,s,1,2,NA,NA,NA,sub1
task,mainTask,3,D,386,66,1,1261,3,i,m,s,122,1434355,1435616,122,s,1,3,NA,NA,NA,sub1
task,mainTask,3,D,387,67,1,1362,2,c,m,r,122,1437620,1438982,122,s,1,4,NA,NA,NA,sub1
task,mainTask,3,D,388,68,1,1128,4,c,p,s,122,1440871,1441999,122,f,NA,NA,NA,NA,NA,sub1
task,mainTask,3,D,389,69,1,912,2,c,m,s,122,1444011,1444923,122,f,NA,NA,NA,NA,NA,sub1
task,mainTask,3,D,390,70,1,959,9,c,p,s,109,1446799,1447758,109,f,NA,NA,NA,NA,NA,sub1
task,mainTask,3,D,391,71,1,1089,7,c,m,s,109,1449991,1451080,109,f,NA,NA,NA,NA,NA,sub1
task,mainTask,3,D,392,72,1,1211,2,c,p,s,122,1453134,1454345,122,f,NA,NA,NA,NA,NA,sub1
task,mainTask,3,D,393,73,1,1076,9,c,m,s,109,1456212,1457288,109,f,NA,NA,NA,NA,NA,sub1
task,mainTask,3,D,394,74,1,921,7,c,m,r,109,1459213,1460134,109,s,2,1,NA,NA,NA,sub1
task,mainTask,3,D,395,75,1,970,2,c,m,r,122,1462107,1463077,122,s,2,2,NA,NA,NA,sub1
task,mainTask,3,D,396,76,1,1186,1,i,p,s,109,1465017,1466203,109,s,2,3,NA,NA,NA,sub1
task,mainTask,3,D,397,77,1,1012,3,i,m,s,122,1468283,1469295,122,s,2,4,NA,NA,NA,sub1
task,mainTask,3,D,398,78,1,1046,9,c,p,s,109,1471432,1472478,109,f,NA,NA,NA,NA,NA,sub1
task,mainTask,3,D,399,79,1,1043,4,c,m,s,122,1474572,1475615,122,f,NA,NA,NA,NA,NA,sub1
task,mainTask,3,D,400,80,1,985,7,c,p,s,109,1477679,1478664,109,f,NA,NA,NA,NA,NA,sub1
task,mainTask,3,D,401,81,1,921,2,c,m,s,122,1480600,1481521,122,f,NA,NA,NA,NA,NA,sub1
task,mainTask,3,D,402,82,1,892,9,c,p,s,109,1483335,1484227,109,f,NA,NA,NA,NA,NA,sub1
task,mainTask,3,D,403,83,1,1054,7,c,m,s,109,1486264,1487318,109,f,NA,NA,NA,NA,NA,sub1
task,mainTask,3,D,404,84,1,950,9,c,m,r,109,1489183,1490133,109,s,2,1,NA,NA,NA,sub1
task,mainTask,3,D,405,85,1,1218,4,c,m,r,122,1492095,1493313,122,s,2,2,NA,NA,NA,sub1
task,mainTask,3,D,406,86,1,1071,1,i,p,s,109,1495254,1496325,109,s,2,3,NA,NA,NA,sub1
task,mainTask,3,D,407,87,1,974,8,i,m,s,109,1498386,1499360,109,s,2,4,NA,NA,NA,sub1
task,mainTask,3,D,408,88,1,968,3,i,m,r,122,1501388,1502356,122,f,NA,NA,NA,NA,NA,sub1
task,mainTask,3,D,409,89,1,1318,4,c,p,s,122,1504335,1505653,122,f,NA,NA,NA,NA,NA,sub1
task,mainTask,3,D,410,90,1,934,9,c,m,s,109,1507704,1508638,109,f,NA,NA,NA,NA,NA,sub1
task,mainTask,3,D,411,91,1,956,2,c,p,s,122,1510877,1511833,122,f,NA,NA,NA,NA,NA,sub1
task,mainTask,3,D,412,92,0,NA,9,c,m,s,NA,1513784,NA,109,f,NA,NA,NA,NA,NA,sub1
task,mainTask,3,D,413,93,1,1272,7,c,p,s,109,1517200,1518472,109,f,NA,NA,NA,NA,NA,sub1
task,mainTask,3,D,414,94,1,884,4,c,m,s,122,1520288,1521172,122,s,4,1,NA,NA,NA,sub1
task,mainTask,3,D,415,95,1,1142,7,c,p,s,109,1523180,1524322,109,s,4,2,NA,NA,NA,sub1
task,mainTask,3,D,416,96,1,1008,3,i,p,r,109,1526196,1527204,109,s,4,3,NA,NA,NA,sub1
task,mainTask,3,D,417,97,1,1057,6,i,p,r,122,1529114,1530171,122,s,4,4,NA,NA,NA,sub1
task,mainTask,3,D,418,98,1,865,2,c,m,s,122,1532019,1532884,122,f,NA,NA,NA,NA,NA,sub1
task,mainTask,3,D,419,99,1,860,4,c,p,s,122,1534815,1535675,122,f,NA,NA,NA,NA,NA,sub1
task,mainTask,3,D,420,100,1,938,2,c,m,s,122,1537676,1538614,122,f,NA,NA,NA,NA,NA,sub1
task,mainTask,3,D,421,101,1,1144,9,c,p,s,109,1540442,1541586,109,f,NA,NA,NA,NA,NA,sub1
task,mainTask,3,D,422,102,1,930,4,c,m,s,122,1543520,1544450,122,f,NA,NA,NA,NA,NA,sub1
task,mainTask,3,D,423,103,1,1024,1,i,p,s,109,1546284,1547308,109,s,1,1,NA,NA,NA,sub1
task,mainTask,3,D,424,104,1,898,9,c,p,r,109,1549321,1550219,109,s,1,2,NA,NA,NA,sub1
task,mainTask,3,D,425,105,0,NA,8,i,m,s,NA,1552129,NA,109,s,1,3,NA,NA,NA,sub1
task,mainTask,3,D,426,106,1,943,4,c,m,r,122,1555391,1556334,122,s,1,4,NA,NA,NA,sub1
task,mainTask,3,D,427,107,0,971,2,c,p,s,109,1558287,1559258,122,f,NA,NA,NA,NA,NA,sub1
task,mainTask,3,D,428,108,1,863,4,c,m,s,122,1561063,1561926,122,f,NA,NA,NA,NA,NA,sub1
task,mainTask,3,D,429,109,1,752,2,c,p,s,122,1563872,1564624,122,f,NA,NA,NA,NA,NA,sub1
task,mainTask,3,D,430,110,1,909,4,c,m,s,122,1566792,1567701,122,f,NA,NA,NA,NA,NA,sub1
task,mainTask,3,D,431,111,1,979,9,c,p,s,109,1569796,1570775,109,f,NA,NA,NA,NA,NA,sub1
task,mainTask,3,D,432,112,1,953,7,c,m,s,109,1572878,1573831,109,f,NA,NA,NA,NA,NA,sub1
task,mainTask,3,D,433,113,1,944,4,c,p,s,122,1575826,1576770,122,s,4,1,NA,NA,NA,sub1
task,mainTask,3,D,434,114,1,852,9,c,m,s,109,1578844,1579696,109,s,4,2,NA,NA,NA,sub1
task,mainTask,3,D,435,115,1,1004,3,i,m,r,122,1581667,1582671,122,s,4,3,NA,NA,NA,sub1
task,mainTask,3,D,436,116,1,1058,6,i,m,r,109,1584559,1585617,109,s,4,4,NA,NA,NA,sub1
task,mainTask,3,D,437,117,1,893,8,i,m,r,109,1587583,1588476,109,f,NA,NA,NA,NA,NA,sub1
task,mainTask,3,D,438,118,1,1177,9,c,p,s,109,1590674,1591851,109,f,NA,NA,NA,NA,NA,sub1
task,mainTask,3,D,439,119,1,1326,7,c,m,s,109,1593908,1595234,109,f,NA,NA,NA,NA,NA,sub1
task,mainTask,3,D,440,120,1,917,4,c,p,s,122,1597152,1598069,122,f,NA,NA,NA,NA,NA,sub1
task,mainTask,3,D,441,121,1,945,2,c,m,s,122,1600145,1601090,122,f,NA,NA,NA,NA,NA,sub1
task,mainTask,3,D,442,122,1,978,4,c,p,s,122,1602984,1603962,122,f,NA,NA,NA,NA,NA,sub1
task,mainTask,3,D,443,123,1,973,8,i,p,r,122,1605993,1606966,122,s,3,1,NA,NA,NA,sub1
task,mainTask,3,D,444,124,1,1057,4,c,m,s,122,1608962,1610019,122,s,3,2,NA,NA,NA,sub1
task,mainTask,3,D,445,125,1,1068,8,i,m,r,109,1612218,1613286,109,s,3,3,NA,NA,NA,sub1
task,mainTask,3,D,446,126,1,948,7,c,p,s,109,1615215,1616163,109,s,3,4,NA,NA,NA,sub1
task,mainTask,3,D,447,127,1,793,4,c,m,s,122,1618177,1618970,122,f,NA,NA,NA,NA,NA,sub1
task,mainTask,3,D,448,128,1,1034,9,c,p,s,109,1620848,1621882,109,f,NA,NA,NA,NA,NA,sub1
task,mainTask,3,D,449,129,1,1305,4,c,m,s,122,1623722,1625027,122,f,NA,NA,NA,NA,NA,sub1
task,mainTask,3,D,450,130,1,976,9,c,p,s,109,1627088,1628064,109,f,NA,NA,NA,NA,NA,sub1
task,mainTask,3,D,451,131,1,889,7,c,m,s,109,1630096,1630985,109,f,NA,NA,NA,NA,NA,sub1
task,mainTask,3,D,452,132,1,893,4,c,m,r,122,1633209,1634102,122,s,2,1,NA,NA,NA,sub1
task,mainTask,3,D,453,133,1,871,2,c,m,r,122,1636281,1637152,122,s,2,2,NA,NA,NA,sub1
task,mainTask,3,D,454,134,0,997,6,i,p,s,109,1639087,1640084,122,s,2,3,NA,NA,NA,sub1
task,mainTask,3,D,455,135,1,1024,3,i,m,s,122,1642089,1643113,122,s,2,4,NA,NA,NA,sub1
task,mainTask,3,D,456,136,1,1114,6,i,m,r,109,1645240,1646354,109,f,NA,NA,NA,NA,NA,sub1
task,mainTask,3,D,457,137,1,1059,9,c,p,s,109,1648361,1649420,109,f,NA,NA,NA,NA,NA,sub1
task,mainTask,3,D,458,138,1,1037,7,c,m,s,109,1651469,1652506,109,f,NA,NA,NA,NA,NA,sub1
task,mainTask,3,D,459,139,1,1036,2,c,p,s,122,1654585,1655621,122,f,NA,NA,NA,NA,NA,sub1
task,mainTask,3,D,460,140,1,1000,7,c,m,s,109,1658048,1659048,109,f,NA,NA,NA,NA,NA,sub1
task,mainTask,3,D,461,141,1,958,4,c,p,s,122,1661056,1662014,122,f,NA,NA,NA,NA,NA,sub1
task,mainTask,3,D,462,142,1,1160,8,i,p,r,122,1663968,1665128,122,s,3,1,NA,NA,NA,sub1
task,mainTask,3,D,463,143,1,1089,7,c,m,s,109,1667211,1668300,109,s,3,2,NA,NA,NA,sub1
task,mainTask,3,D,464,144,1,1150,8,i,m,r,109,1670290,1671440,109,s,3,3,NA,NA,NA,sub1
task,mainTask,3,D,465,145,1,1243,7,c,p,s,109,1673312,1674555,109,s,3,4,NA,NA,NA,sub1
task,mainTask,3,D,466,146,1,955,3,i,p,r,109,1676432,1677387,109,f,NA,NA,NA,NA,NA,sub1
task,mainTask,3,D,467,147,1,890,7,c,m,s,109,1679584,1680474,109,f,NA,NA,NA,NA,NA,sub1
task,mainTask,3,D,468,148,1,891,4,c,p,s,122,1682556,1683447,122,f,NA,NA,NA,NA,NA,sub1
task,mainTask,3,D,469,149,1,953,9,c,m,s,109,1685528,1686481,109,f,NA,NA,NA,NA,NA,sub1
task,mainTask,3,D,470,150,1,1308,7,c,p,s,109,1688616,1689924,109,f,NA,NA,NA,NA,NA,sub1
task,mainTask,3,D,471,151,1,1161,9,c,m,s,109,1691913,1693074,109,f,NA,NA,NA,NA,NA,sub1
task,mainTask,3,D,472,152,1,819,8,i,m,r,109,1695007,1695826,109,s,3,1,NA,NA,NA,sub1
task,mainTask,3,D,473,153,1,935,4,c,p,s,122,1697794,1698729,122,s,3,2,NA,NA,NA,sub1
task,mainTask,3,D,474,154,1,984,6,i,p,r,122,1700728,1701712,122,s,3,3,NA,NA,NA,sub1
task,mainTask,3,D,475,155,1,1100,7,c,m,s,109,1703816,1704916,109,s,3,4,NA,NA,NA,sub1
task,mainTask,3,D,476,156,1,1035,6,i,m,r,109,1706823,1707858,109,f,NA,NA,NA,NA,NA,sub1
task,mainTask,3,D,477,157,1,1094,4,c,p,s,122,1710013,1711107,122,f,NA,NA,NA,NA,NA,sub1
task,mainTask,3,D,478,158,1,1145,7,c,m,s,109,1713050,1714195,109,f,NA,NA,NA,NA,NA,sub1
task,mainTask,3,D,479,159,1,937,4,c,p,s,122,1716161,1717098,122,f,NA,NA,NA,NA,NA,sub1
task,mainTask,3,D,480,160,1,979,9,c,m,s,109,1719262,1720241,109,f,NA,NA,NA,NA,NA,sub1
main1-2,blockBreak,3,NA,NA,NA,NA,NA,NA,NA,NA,NA,NA,NA,NA,NA,NA,NA,NA,1721624,1726498,4874,sub1
task,mainTask,4,C,481,1,1,1238,4,c,p,n,122,1730062,1731300,122,f,NA,NA,NA,NA,NA,sub1
task,mainTask,4,C,482,2,1,982,7,c,p,r,109,1733504,1734486,109,f,NA,NA,NA,NA,NA,sub1
task,mainTask,4,C,483,3,1,1567,2,c,p,r,122,1737221,1738788,122,f,NA,NA,NA,NA,NA,sub1
task,mainTask,4,C,484,4,1,1165,7,c,p,r,109,1740562,1741727,109,f,NA,NA,NA,NA,NA,sub1
task,mainTask,4,C,485,5,1,1140,4,c,p,r,122,1743744,1744884,122,f,NA,NA,NA,NA,NA,sub1
task,mainTask,4,C,486,6,1,983,7,c,m,s,109,1747572,1748555,109,s,4,1,NA,NA,NA,sub1
task,mainTask,4,C,487,7,1,1145,2,c,p,s,122,1750487,1751632,122,s,4,2,NA,NA,NA,sub1
task,mainTask,4,C,488,8,0,1057,8,i,p,r,109,1753630,1754687,122,s,4,3,NA,NA,NA,sub1
task,mainTask,4,C,489,9,1,1038,6,i,p,r,122,1756576,1757614,122,s,4,4,NA,NA,NA,sub1
task,mainTask,4,C,490,10,1,1454,1,i,m,s,122,1759576,1761030,122,f,NA,NA,NA,NA,NA,sub1
task,mainTask,4,C,491,11,1,1210,9,c,m,r,109,1763095,1764305,109,f,NA,NA,NA,NA,NA,sub1
task,mainTask,4,C,492,12,0,NA,2,c,m,r,NA,1766527,NA,122,f,NA,NA,NA,NA,NA,sub1
task,mainTask,4,C,493,13,1,1115,7,c,m,r,109,1770000,1771115,109,f,NA,NA,NA,NA,NA,sub1
task,mainTask,4,C,494,14,1,867,9,c,m,r,109,1773020,1773887,109,f,NA,NA,NA,NA,NA,sub1
task,mainTask,4,C,495,15,1,965,7,c,m,r,109,1775913,1776878,109,f,NA,NA,NA,NA,NA,sub1
task,mainTask,4,C,496,16,1,928,3,i,m,r,122,1778839,1779767,122,s,3,1,NA,NA,NA,sub1
task,mainTask,4,C,497,17,1,990,9,c,p,s,109,1781743,1782733,109,s,3,2,NA,NA,NA,sub1
task,mainTask,4,C,498,18,0,932,1,i,p,r,122,1784687,1785619,109,s,3,3,NA,NA,NA,sub1
task,mainTask,4,C,499,19,1,1092,4,c,m,s,122,1787368,1788460,122,s,3,4,NA,NA,NA,sub1
task,mainTask,4,C,500,20,1,1089,9,c,m,r,109,1790218,1791307,109,f,NA,NA,NA,NA,NA,sub1
task,mainTask,4,C,501,21,1,1089,4,c,m,r,122,1793434,1794523,122,f,NA,NA,NA,NA,NA,sub1
task,mainTask,4,C,502,22,0,1008,7,c,m,r,122,1796727,1797735,109,f,NA,NA,NA,NA,NA,sub1
task,mainTask,4,C,503,23,1,999,4,c,m,r,122,1799551,1800550,122,f,NA,NA,NA,NA,NA,sub1
task,mainTask,4,C,504,24,1,990,7,c,m,r,109,1802512,1803502,109,f,NA,NA,NA,NA,NA,sub1
task,mainTask,4,C,505,25,1,1238,8,i,p,s,122,1805391,1806629,122,s,1,1,NA,NA,NA,sub1
task,mainTask,4,C,506,26,1,956,7,c,p,r,109,1808433,1809389,109,s,1,2,NA,NA,NA,sub1
task,mainTask,4,C,507,27,1,1085,6,i,m,s,109,1811577,1812662,109,s,1,3,NA,NA,NA,sub1
task,mainTask,4,C,508,28,1,929,9,c,m,r,109,1814639,1815568,109,s,1,4,NA,NA,NA,sub1
task,mainTask,4,C,509,29,1,916,4,c,m,r,122,1817535,1818451,122,f,NA,NA,NA,NA,NA,sub1
task,mainTask,4,C,510,30,1,900,9,c,m,r,109,1820384,1821284,109,f,NA,NA,NA,NA,NA,sub1
task,mainTask,4,C,511,31,1,937,4,c,m,r,122,1823220,1824157,122,f,NA,NA,NA,NA,NA,sub1
task,mainTask,4,C,512,32,1,877,7,c,m,r,109,1826107,1826984,109,f,NA,NA,NA,NA,NA,sub1
task,mainTask,4,C,513,33,1,772,4,c,m,r,122,1828959,1829731,122,f,NA,NA,NA,NA,NA,sub1
task,mainTask,4,C,514,34,1,869,2,c,m,r,122,1831694,1832563,122,f,NA,NA,NA,NA,NA,sub1
task,mainTask,4,C,515,35,1,976,4,c,m,r,122,1834504,1835480,122,s,2,1,NA,NA,NA,sub1
task,mainTask,4,C,516,36,1,913,9,c,m,r,109,1837423,1838336,109,s,2,2,NA,NA,NA,sub1
task,mainTask,4,C,517,37,0,1002,1,i,p,s,122,1840311,1841313,109,s,2,3,NA,NA,NA,sub1
task,mainTask,4,C,518,38,1,1082,3,i,m,s,122,1843487,1844569,122,s,2,4,NA,NA,NA,sub1
task,mainTask,4,C,519,39,1,943,2,c,m,r,122,1846528,1847471,122,f,NA,NA,NA,NA,NA,sub1
task,mainTask,4,C,520,40,1,916,9,c,m,r,109,1849578,1850494,109,f,NA,NA,NA,NA,NA,sub1
task,mainTask,4,C,521,41,1,750,7,c,m,r,109,1852471,1853221,109,f,NA,NA,NA,NA,NA,sub1
task,mainTask,4,C,522,42,1,929,4,c,m,r,122,1855303,1856232,122,f,NA,NA,NA,NA,NA,sub1
task,mainTask,4,C,523,43,1,836,7,c,m,r,109,1858102,1858938,109,f,NA,NA,NA,NA,NA,sub1
task,mainTask,4,C,524,44,0,1322,3,i,p,s,122,1860893,1862215,109,s,1,1,NA,NA,NA,sub1
task,mainTask,4,C,525,45,1,1409,2,c,p,r,122,1864197,1865606,122,s,1,2,NA,NA,NA,sub1
task,mainTask,4,C,526,46,1,969,6,i,m,s,109,1867498,1868467,109,s,1,3,NA,NA,NA,sub1
task,mainTask,4,C,527,47,1,1012,9,c,m,r,109,1870429,1871441,109,s,1,4,NA,NA,NA,sub1
task,mainTask,4,C,528,48,1,920,2,c,m,r,122,1873409,1874329,122,f,NA,NA,NA,NA,NA,sub1
task,mainTask,4,C,529,49,1,905,7,c,m,r,109,1876311,1877216,109,f,NA,NA,NA,NA,NA,sub1
task,mainTask,4,C,530,50,1,955,4,c,m,r,122,1879284,1880239,122,f,NA,NA,NA,NA,NA,sub1
task,mainTask,4,C,531,51,1,883,7,c,m,r,109,1882192,1883075,109,f,NA,NA,NA,NA,NA,sub1
task,mainTask,4,C,532,52,1,832,4,c,m,r,122,1884912,1885744,122,f,NA,NA,NA,NA,NA,sub1
task,mainTask,4,C,533,53,1,814,7,c,m,r,109,1887769,1888583,109,f,NA,NA,NA,NA,NA,sub1
task,mainTask,4,C,534,54,0,1163,4,c,p,s,109,1890790,1891953,122,s,4,1,NA,NA,NA,sub1
task,mainTask,4,C,535,55,1,893,7,c,m,s,109,1893848,1894741,109,s,4,2,NA,NA,NA,sub1
task,mainTask,4,C,536,56,1,978,3,i,m,r,122,1896647,1897625,122,s,4,3,NA,NA,NA,sub1
task,mainTask,4,C,537,57,1,935,6,i,m,r,109,1899753,1900688,109,s,4,4,NA,NA,NA,sub1
task,mainTask,4,C,538,58,0,839,1,i,p,s,122,1902545,1903384,109,f,NA,NA,NA,NA,NA,sub1
task,mainTask,4,C,539,59,1,929,2,c,p,r,122,1905608,1906537,122,f,NA,NA,NA,NA,NA,sub1
task,mainTask,4,C,540,60,1,953,7,c,p,r,109,1908369,1909322,109,f,NA,NA,NA,NA,NA,sub1
task,mainTask,4,C,541,61,1,1031,2,c,p,r,122,1911314,1912345,122,f,NA,NA,NA,NA,NA,sub1
task,mainTask,4,C,542,62,1,1042,7,c,p,r,109,1914428,1915470,109,f,NA,NA,NA,NA,NA,sub1
task,mainTask,4,C,543,63,1,996,2,c,p,r,122,1917588,1918584,122,f,NA,NA,NA,NA,NA,sub1
task,mainTask,4,C,544,64,1,1194,8,i,m,s,109,1920593,1921787,109,s,1,1,NA,NA,NA,sub1
task,mainTask,4,C,545,65,1,1149,4,c,m,r,122,1923738,1924887,122,s,1,2,NA,NA,NA,sub1
task,mainTask,4,C,546,66,1,1101,3,i,p,s,109,1926858,1927959,109,s,1,3,NA,NA,NA,sub1
task,mainTask,4,C,547,67,1,1016,9,c,p,r,109,1929928,1930944,109,s,1,4,NA,NA,NA,sub1
task,mainTask,4,C,548,68,1,874,1,i,m,s,122,1932960,1933834,122,f,NA,NA,NA,NA,NA,sub1
task,mainTask,4,C,549,69,1,926,7,c,m,r,109,1935884,1936810,109,f,NA,NA,NA,NA,NA,sub1
task,mainTask,4,C,550,70,1,920,4,c,m,r,122,1938760,1939680,122,f,NA,NA,NA,NA,NA,sub1
task,mainTask,4,C,551,71,1,907,2,c,m,r,122,1941584,1942491,122,f,NA,NA,NA,NA,NA,sub1
task,mainTask,4,C,552,72,1,912,4,c,m,r,122,1944336,1945248,122,f,NA,NA,NA,NA,NA,sub1
task,mainTask,4,C,553,73,1,1141,7,c,m,r,109,1947151,1948292,109,f,NA,NA,NA,NA,NA,sub1
task,mainTask,4,C,554,74,1,1015,9,c,m,r,109,1950200,1951215,109,s,2,1,NA,NA,NA,sub1
task,mainTask,4,C,555,75,1,1126,2,c,m,r,122,1953294,1954420,122,s,2,2,NA,NA,NA,sub1
task,mainTask,4,C,556,76,1,1245,8,i,p,s,122,1956373,1957618,122,s,2,3,NA,NA,NA,sub1
task,mainTask,4,C,557,77,1,914,6,i,m,s,109,1959740,1960654,109,s,2,4,NA,NA,NA,sub1
task,mainTask,4,C,558,78,1,791,2,c,m,r,122,1962658,1963449,122,f,NA,NA,NA,NA,NA,sub1
task,mainTask,4,C,559,79,1,1198,9,c,m,r,109,1965347,1966545,109,f,NA,NA,NA,NA,NA,sub1
task,mainTask,4,C,560,80,1,831,2,c,m,r,122,1968715,1969546,122,f,NA,NA,NA,NA,NA,sub1
task,mainTask,4,C,561,81,1,901,9,c,m,r,109,1971544,1972445,109,f,NA,NA,NA,NA,NA,sub1
task,mainTask,4,C,562,82,1,892,7,c,m,r,109,1974287,1975179,109,f,NA,NA,NA,NA,NA,sub1
task,mainTask,4,C,563,83,1,1091,9,c,m,r,109,1977137,1978228,109,f,NA,NA,NA,NA,NA,sub1
task,mainTask,4,C,564,84,1,984,2,c,m,r,122,1980104,1981088,122,s,2,1,NA,NA,NA,sub1
task,mainTask,4,C,565,85,1,1066,4,c,m,r,122,1983072,1984138,122,s,2,2,NA,NA,NA,sub1
task,mainTask,4,C,566,86,0,952,6,i,p,s,109,1986008,1986960,122,s,2,3,NA,NA,NA,sub1
task,mainTask,4,C,567,87,1,1015,1,i,m,s,122,1989044,1990059,122,s,2,4,NA,NA,NA,sub1
task,mainTask,4,C,568,88,0,1055,8,i,p,s,109,1992050,1993105,122,f,NA,NA,NA,NA,NA,sub1
task,mainTask,4,C,569,89,1,1064,7,c,p,r,109,1995152,1996216,109,f,NA,NA,NA,NA,NA,sub1
task,mainTask,4,C,570,90,1,991,2,c,p,r,122,1998328,1999319,122,f,NA,NA,NA,NA,NA,sub1
task,mainTask,4,C,571,91,1,1124,9,c,p,r,109,2001348,2002472,109,f,NA,NA,NA,NA,NA,sub1
task,mainTask,4,C,572,92,1,888,2,c,p,r,122,2004428,2005316,122,f,NA,NA,NA,NA,NA,sub1
task,mainTask,4,C,573,93,1,813,7,c,p,r,109,2007512,2008325,109,f,NA,NA,NA,NA,NA,sub1
task,mainTask,4,C,574,94,1,858,2,c,m,s,122,2010244,2011102,122,s,4,1,NA,NA,NA,sub1
task,mainTask,4,C,575,95,1,1147,4,c,p,s,122,2013047,2014194,122,s,4,2,NA,NA,NA,sub1
task,mainTask,4,C,576,96,0,968,1,i,p,r,122,2016295,2017263,109,s,4,3,NA,NA,NA,sub1
task,mainTask,4,C,577,97,1,1042,3,i,p,r,109,2019325,2020367,109,s,4,4,NA,NA,NA,sub1
task,mainTask,4,C,578,98,1,1060,6,i,m,s,109,2022562,2023622,109,f,NA,NA,NA,NA,NA,sub1
task,mainTask,4,C,579,99,1,922,2,c,m,r,122,2025608,2026530,122,f,NA,NA,NA,NA,NA,sub1
task,mainTask,4,C,580,100,1,802,7,c,m,r,109,2028625,2029427,109,f,NA,NA,NA,NA,NA,sub1
task,mainTask,4,C,581,101,1,885,4,c,m,r,122,2031537,2032422,122,f,NA,NA,NA,NA,NA,sub1
task,mainTask,4,C,582,102,1,798,2,c,m,r,122,2034464,2035262,122,f,NA,NA,NA,NA,NA,sub1
task,mainTask,4,C,583,103,1,826,7,c,m,r,109,2037346,2038172,109,f,NA,NA,NA,NA,NA,sub1
task,mainTask,4,C,584,104,0,792,3,i,p,s,122,2040091,2040883,109,s,1,1,NA,NA,NA,sub1
task,mainTask,4,C,585,105,1,993,2,c,p,r,122,2043403,2044396,122,s,1,2,NA,NA,NA,sub1
task,mainTask,4,C,586,106,1,929,8,i,m,s,109,2046267,2047196,109,s,1,3,NA,NA,NA,sub1
task,mainTask,4,C,587,107,1,941,9,c,m,r,109,2049199,2050140,109,s,1,4,NA,NA,NA,sub1
task,mainTask,4,C,588,108,1,886,4,c,m,r,122,2052112,2052998,122,f,NA,NA,NA,NA,NA,sub1
task,mainTask,4,C,589,109,1,898,2,c,m,r,122,2055015,2055913,122,f,NA,NA,NA,NA,NA,sub1
task,mainTask,4,C,590,110,1,883,4,c,m,r,122,2057695,2058578,122,f,NA,NA,NA,NA,NA,sub1
task,mainTask,4,C,591,111,1,871,7,c,m,r,109,2060607,2061478,109,f,NA,NA,NA,NA,NA,sub1
task,mainTask,4,C,592,112,1,935,9,c,m,r,109,2063522,2064457,109,f,NA,NA,NA,NA,NA,sub1
task,mainTask,4,C,593,113,1,840,4,c,p,s,122,2066495,2067335,122,s,4,1,NA,NA,NA,sub1
task,mainTask,4,C,594,114,1,877,2,c,m,s,122,2069175,2070052,122,s,4,2,NA,NA,NA,sub1
task,mainTask,4,C,595,115,1,777,1,i,m,r,122,2071976,2072753,122,s,4,3,NA,NA,NA,sub1
task,mainTask,4,C,596,116,1,912,3,i,m,r,122,2074582,2075494,122,s,4,4,NA,NA,NA,sub1
task,mainTask,4,C,597,117,0,821,1,i,p,s,122,2077406,2078227,109,f,NA,NA,NA,NA,NA,sub1
task,mainTask,4,C,598,118,1,773,7,c,p,r,109,2080272,2081045,109,f,NA,NA,NA,NA,NA,sub1
task,mainTask,4,C,599,119,1,1199,4,c,p,r,122,2083150,2084349,122,f,NA,NA,NA,NA,NA,sub1
task,mainTask,4,C,600,120,1,1014,9,c,p,r,109,2086463,2087477,109,f,NA,NA,NA,NA,NA,sub1
task,mainTask,4,C,601,121,1,1089,2,c,p,r,122,2089501,2090590,122,f,NA,NA,NA,NA,NA,sub1
task,mainTask,4,C,602,122,1,870,7,c,p,r,109,2092352,2093222,109,f,NA,NA,NA,NA,NA,sub1
task,mainTask,4,C,603,123,1,888,6,i,p,r,122,2095295,2096183,122,s,3,1,NA,NA,NA,sub1
task,mainTask,4,C,604,124,1,969,4,c,m,s,122,2098048,2099017,122,s,3,2,NA,NA,NA,sub1
task,mainTask,4,C,605,125,0,879,6,i,m,r,122,2101010,2101889,109,s,3,3,NA,NA,NA,sub1
task,mainTask,4,C,606,126,1,1208,2,c,p,s,122,2104404,2105612,122,s,3,4,NA,NA,NA,sub1
task,mainTask,4,C,607,127,1,835,9,c,p,r,109,2107641,2108476,109,f,NA,NA,NA,NA,NA,sub1
task,mainTask,4,C,608,128,1,873,2,c,p,r,122,2110485,2111358,122,f,NA,NA,NA,NA,NA,sub1
task,mainTask,4,C,609,129,1,990,9,c,p,r,109,2113386,2114376,109,f,NA,NA,NA,NA,NA,sub1
task,mainTask,4,C,610,130,1,849,7,c,p,r,109,2116257,2117106,109,f,NA,NA,NA,NA,NA,sub1
task,mainTask,4,C,611,131,1,968,2,c,p,r,122,2119178,2120146,122,f,NA,NA,NA,NA,NA,sub1
task,mainTask,4,C,612,132,1,910,7,c,p,r,109,2122074,2122984,109,f,NA,NA,NA,NA,NA,sub1
task,mainTask,4,C,613,133,1,952,9,c,p,r,109,2125059,2126011,109,s,2,1,NA,NA,NA,sub1
task,mainTask,4,C,614,134,1,933,2,c,p,r,122,2128033,2128966,122,s,2,2,NA,NA,NA,sub1
task,mainTask,4,C,615,135,1,963,3,i,m,s,122,2130913,2131876,122,s,2,3,NA,NA,NA,sub1
task,mainTask,4,C,616,136,1,998,6,i,p,s,122,2133994,2134992,122,s,2,4,NA,NA,NA,sub1
task,mainTask,4,C,617,137,1,942,1,i,m,s,122,2137057,2137999,122,f,NA,NA,NA,NA,NA,sub1
task,mainTask,4,C,618,138,1,1162,7,c,m,r,109,2139978,2141140,109,f,NA,NA,NA,NA,NA,sub1
task,mainTask,4,C,619,139,1,843,2,c,m,r,122,2143080,2143923,122,f,NA,NA,NA,NA,NA,sub1
task,mainTask,4,C,620,140,1,973,4,c,m,r,122,2145888,2146861,122,f,NA,NA,NA,NA,NA,sub1
task,mainTask,4,C,621,141,1,861,6,i,m,r,109,2148949,2149810,109,s,3,1,NA,NA,NA,sub1
task,mainTask,4,C,622,142,1,1162,2,c,p,s,122,2151845,2153007,122,s,3,2,NA,NA,NA,sub1
task,mainTask,4,C,623,143,0,1000,6,i,p,r,109,2154921,2155921,122,s,3,3,NA,NA,NA,sub1
task,mainTask,4,C,624,144,1,1017,7,c,m,s,109,2157984,2159001,109,s,3,4,NA,NA,NA,sub1
task,mainTask,4,C,625,145,1,877,2,c,m,r,122,2161032,2161909,122,f,NA,NA,NA,NA,NA,sub1
task,mainTask,4,C,626,146,1,843,4,c,m,r,122,2163785,2164628,122,f,NA,NA,NA,NA,NA,sub1
task,mainTask,4,C,627,147,0,NA,2,c,m,r,NA,2166544,NA,122,f,NA,NA,NA,NA,NA,sub1
task,mainTask,4,C,628,148,1,1282,7,c,m,r,109,2169979,2171261,109,f,NA,NA,NA,NA,NA,sub1
task,mainTask,4,C,629,149,1,1106,2,c,m,r,122,2173106,2174212,122,f,NA,NA,NA,NA,NA,sub1
task,mainTask,4,C,630,150,1,1011,9,c,m,r,109,2176297,2177308,109,f,NA,NA,NA,NA,NA,sub1
task,mainTask,4,C,631,151,1,887,8,i,m,r,109,2179287,2180174,109,s,3,1,NA,NA,NA,sub1
task,mainTask,4,C,632,152,1,915,9,c,p,s,109,2182002,2182917,109,s,3,2,NA,NA,NA,sub1
task,mainTask,4,C,633,153,1,979,8,i,p,r,122,2184861,2185840,122,s,3,3,NA,NA,NA,sub1
task,mainTask,4,C,634,154,1,1006,2,c,m,s,122,2187944,2188950,122,s,3,4,NA,NA,NA,sub1
task,mainTask,4,C,635,155,1,1153,6,i,p,s,122,2190779,2191932,122,f,NA,NA,NA,NA,NA,sub1
task,mainTask,4,C,636,156,1,935,9,c,p,r,109,2194016,2194951,109,f,NA,NA,NA,NA,NA,sub1
task,mainTask,4,C,637,157,1,776,2,c,p,r,122,2196840,2197616,122,f,NA,NA,NA,NA,NA,sub1
task,mainTask,4,C,638,158,1,909,9,c,p,r,109,2199608,2200517,109,f,NA,NA,NA,NA,NA,sub1
task,mainTask,4,C,639,159,1,836,2,c,p,r,122,2202457,2203293,122,f,NA,NA,NA,NA,NA,sub1
task,mainTask,4,C,640,160,1,968,4,c,p,r,122,2205151,2206119,122,f,NA,NA,NA,NA,NA,sub1
prac1-1,instructions,1,NA,NA,NA,NA,NA,NA,NA,NA,NA,NA,NA,NA,NA,NA,NA,NA,1,8341,8340,sub2
prac1-2,instructions,1,NA,NA,NA,NA,NA,NA,NA,NA,NA,NA,NA,NA,NA,NA,NA,NA,8344,30655,22311,sub2
task,pracTask,1,NA,1,1,1,1116,2,c,p,n,77,34221,35337,109,NA,NA,NA,NA,NA,NA,sub2
task,pracTask,1,NA,2,2,1,864,4,c,p,r,77,37357,38221,109,NA,NA,NA,NA,NA,NA,sub2
task,pracTask,1,NA,3,3,1,934,3,i,p,r,90,40253,41187,122,NA,NA,NA,NA,NA,NA,sub2
task,pracTask,1,NA,4,4,1,797,6,i,p,r,77,43137,43934,109,NA,NA,NA,NA,NA,NA,sub2
task,pracTask,1,NA,5,5,1,776,1,i,p,r,90,45829,46605,122,NA,NA,NA,NA,NA,NA,sub2
task,pracTask,1,NA,6,6,1,1001,4,c,p,r,77,48453,49454,109,NA,NA,NA,NA,NA,NA,sub2
task,pracTask,1,NA,7,7,1,930,8,i,p,r,77,51541,52471,109,NA,NA,NA,NA,NA,NA,sub2
task,pracTask,1,NA,8,8,1,1193,9,c,p,r,90,54365,55558,122,NA,NA,NA,NA,NA,NA,sub2
prac1-2,pracFeedback,1,NA,NA,NA,NA,NA,NA,NA,NA,NA,NA,NA,NA,NA,NA,NA,NA,57182,64594,7412,sub2
prac2,instructions,1,NA,NA,NA,NA,NA,NA,NA,NA,NA,NA,NA,NA,NA,NA,NA,NA,64595,97202,32607,sub2
task,pracTask,1,NA,1,1,0,1045,9,c,m,n,77,100772,101817,122,NA,NA,NA,NA,NA,NA,sub2
task,pracTask,1,NA,2,2,1,1040,7,c,m,r,90,103663,104703,122,NA,NA,NA,NA,NA,NA,sub2
task,pracTask,1,NA,3,3,1,1120,4,c,m,r,77,106620,107740,109,NA,NA,NA,NA,NA,NA,sub2
task,pracTask,1,NA,4,4,1,967,1,i,m,r,77,109629,110596,109,NA,NA,NA,NA,NA,NA,sub2
task,pracTask,1,NA,5,5,1,829,8,i,m,r,90,112621,113450,122,NA,NA,NA,NA,NA,NA,sub2
task,pracTask,1,NA,6,6,1,980,1,i,m,r,77,115412,116392,109,NA,NA,NA,NA,NA,NA,sub2
task,pracTask,1,NA,7,7,1,1145,3,i,m,r,77,118267,119412,109,NA,NA,NA,NA,NA,NA,sub2
task,pracTask,1,NA,8,8,1,923,7,c,m,r,90,121500,122423,122,NA,NA,NA,NA,NA,NA,sub2
prac2,pracFeedback,1,NA,NA,NA,NA,NA,NA,NA,NA,NA,NA,NA,NA,NA,NA,NA,NA,123805,129902,6097,sub2
prac3,instructions,1,NA,NA,NA,NA,NA,NA,NA,NA,NA,NA,NA,NA,NA,NA,NA,NA,129902,191663,61761,sub2
task,pracTask,1,NA,1,1,0,1155,7,c,m,n,77,195379,196534,122,NA,NA,NA,NA,NA,NA,sub2
task,pracTask,1,NA,2,2,0,NA,3,i,p,s,NA,198404,NA,122,NA,NA,NA,NA,NA,NA,sub2
task,pracTask,1,NA,3,3,1,1065,8,i,m,s,90,201667,202732,122,NA,NA,NA,NA,NA,NA,sub2
task,pracTask,1,NA,4,4,1,990,3,i,m,r,77,204675,205665,109,NA,NA,NA,NA,NA,NA,sub2
task,pracTask,1,NA,5,5,1,1151,6,i,m,r,90,207558,208709,122,NA,NA,NA,NA,NA,NA,sub2
task,pracTask,1,NA,6,6,1,855,3,i,m,r,77,210588,211443,109,NA,NA,NA,NA,NA,NA,sub2
task,pracTask,1,NA,7,7,1,934,7,c,m,r,90,213501,214435,122,NA,NA,NA,NA,NA,NA,sub2
task,pracTask,1,NA,8,8,1,1136,9,c,m,r,90,216460,217596,122,NA,NA,NA,NA,NA,NA,sub2
task,pracTask,1,NA,9,9,1,1038,4,c,m,r,77,219668,220706,109,NA,NA,NA,NA,NA,NA,sub2
task,pracTask,1,NA,10,10,0,1173,8,i,p,s,90,222692,223865,109,NA,NA,NA,NA,NA,NA,sub2
task,pracTask,1,NA,11,11,0,1458,2,c,m,s,90,225723,227181,109,NA,NA,NA,NA,NA,NA,sub2
task,pracTask,1,NA,12,12,0,NA,7,c,p,s,NA,229115,NA,122,NA,NA,NA,NA,NA,NA,sub2
task,pracTask,1,NA,13,13,0,1208,4,c,m,s,90,232456,233664,109,NA,NA,NA,NA,NA,NA,sub2
task,pracTask,1,NA,14,14,1,1471,7,c,m,r,90,236027,237498,122,NA,NA,NA,NA,NA,NA,sub2
task,pracTask,1,NA,15,15,0,1338,9,c,p,s,77,239387,240725,122,NA,NA,NA,NA,NA,NA,sub2
task,pracTask,1,NA,16,16,1,1488,6,i,m,s,90,242636,244124,122,NA,NA,NA,NA,NA,NA,sub2
prac3,pracFeedback,1,NA,NA,NA,NA,NA,NA,NA,NA,NA,NA,NA,NA,NA,NA,NA,NA,245443,273646,28203,sub2
prac3,instructions,2,NA,NA,NA,NA,NA,NA,NA,NA,NA,NA,NA,NA,NA,NA,NA,NA,273648,278031,4383,sub2
task,pracTask,2,NA,1,1,1,1272,4,c,p,n,77,281674,282946,109,NA,NA,NA,NA,NA,NA,sub2
task,pracTask,2,NA,2,2,0,974,3,i,m,s,90,284820,285794,109,NA,NA,NA,NA,NA,NA,sub2
task,pracTask,2,NA,3,3,0,1488,7,c,p,s,77,287715,289203,122,NA,NA,NA,NA,NA,NA,sub2
task,pracTask,2,NA,4,4,1,1200,1,i,p,r,90,291133,292333,122,NA,NA,NA,NA,NA,NA,sub2
task,pracTask,2,NA,5,5,1,1234,7,c,p,r,90,294209,295443,122,NA,NA,NA,NA,NA,NA,sub2
task,pracTask,2,NA,6,6,0,1346,2,c,m,s,90,297346,298692,109,NA,NA,NA,NA,NA,NA,sub2
task,pracTask,2,NA,7,7,1,982,3,i,m,r,77,300640,301622,109,NA,NA,NA,NA,NA,NA,sub2
task,pracTask,2,NA,8,8,1,1110,1,i,p,s,90,303679,304789,122,NA,NA,NA,NA,NA,NA,sub2
task,pracTask,2,NA,9,9,1,1097,3,i,m,s,77,306819,307916,109,NA,NA,NA,NA,NA,NA,sub2
task,pracTask,2,NA,10,10,0,1026,4,c,m,r,90,309787,310813,109,NA,NA,NA,NA,NA,NA,sub2
task,pracTask,2,NA,11,11,1,1169,9,c,p,s,90,312755,313924,122,NA,NA,NA,NA,NA,NA,sub2
task,pracTask,2,NA,12,12,1,1310,1,i,m,s,77,315952,317262,109,NA,NA,NA,NA,NA,NA,sub2
task,pracTask,2,NA,13,13,1,1030,9,c,p,s,90,319248,320278,122,NA,NA,NA,NA,NA,NA,sub2
task,pracTask,2,NA,14,14,1,1033,3,i,p,r,90,322289,323322,122,NA,NA,NA,NA,NA,NA,sub2
task,pracTask,2,NA,15,15,1,837,1,i,p,r,90,325411,326248,122,NA,NA,NA,NA,NA,NA,sub2
task,pracTask,2,NA,16,16,1,1129,7,c,p,r,90,328428,329557,122,NA,NA,NA,NA,NA,NA,sub2
prac3,pracFeedback,2,NA,NA,NA,NA,NA,NA,NA,NA,NA,NA,NA,NA,NA,NA,NA,NA,330986,338597,7611,sub2
main1,instructions,1,NA,NA,NA,NA,NA,NA,NA,NA,NA,NA,NA,NA,NA,NA,NA,NA,338600,353329,14729,sub2
main1-2,instructions,1,NA,NA,NA,NA,NA,NA,NA,NA,NA,NA,NA,NA,NA,NA,NA,NA,353331,364402,11071,sub2
task,mainTask,1,C,1,1,0,1288,2,c,m,n,90,368154,369442,109,f,NA,NA,NA,NA,NA,sub2
task,mainTask,1,C,2,2,1,1150,9,c,m,r,90,371383,372533,122,f,NA,NA,NA,NA,NA,sub2
task,mainTask,1,C,3,3,1,1049,2,c,m,r,77,374535,375584,109,f,NA,NA,NA,NA,NA,sub2
task,mainTask,1,C,4,4,1,904,9,c,m,r,90,377490,378394,122,f,NA,NA,NA,NA,NA,sub2
task,mainTask,1,C,5,5,1,883,2,c,m,r,77,380259,381142,109,f,NA,NA,NA,NA,NA,sub2
task,mainTask,1,C,6,6,0,1097,6,i,p,s,90,383138,384235,109,s,1,1,NA,NA,NA,sub2
task,mainTask,1,C,7,7,1,1018,2,c,p,r,77,386165,387183,109,s,1,2,NA,NA,NA,sub2
task,mainTask,1,C,8,8,1,1334,3,i,m,s,77,389146,390480,109,s,1,3,NA,NA,NA,sub2
task,mainTask,1,C,9,9,1,1308,2,c,m,r,77,392412,393720,109,s,1,4,NA,NA,NA,sub2
task,mainTask,1,C,10,10,0,1164,9,c,m,r,77,395570,396734,122,f,NA,NA,NA,NA,NA,sub2
task,mainTask,1,C,11,11,1,1087,7,c,m,r,90,398634,399721,122,f,NA,NA,NA,NA,NA,sub2
task,mainTask,1,C,12,12,1,994,9,c,m,r,90,401698,402692,122,f,NA,NA,NA,NA,NA,sub2
task,mainTask,1,C,13,13,1,1341,2,c,m,r,77,404688,406029,109,f,NA,NA,NA,NA,NA,sub2
task,mainTask,1,C,14,14,1,1283,9,c,m,r,90,407819,409102,122,f,NA,NA,NA,NA,NA,sub2
task,mainTask,1,C,15,15,1,897,2,c,m,r,77,411034,411931,109,f,NA,NA,NA,NA,NA,sub2
task,mainTask,1,C,16,16,0,1183,8,i,p,s,90,413841,415024,109,s,1,1,NA,NA,NA,sub2
task,mainTask,1,C,17,17,1,761,4,c,p,r,77,416962,417723,109,s,1,2,NA,NA,NA,sub2
task,mainTask,1,C,18,18,0,1133,1,i,m,s,90,419713,420846,109,s,1,3,NA,NA,NA,sub2
task,mainTask,1,C,19,19,1,880,7,c,m,r,90,422753,423633,122,s,1,4,NA,NA,NA,sub2
task,mainTask,1,C,20,20,1,1115,4,c,m,r,77,425547,426662,109,f,NA,NA,NA,NA,NA,sub2
task,mainTask,1,C,21,21,1,928,9,c,m,r,90,428513,429441,122,f,NA,NA,NA,NA,NA,sub2
task,mainTask,1,C,22,22,1,860,4,c,m,r,77,431266,432126,109,f,NA,NA,NA,NA,NA,sub2
task,mainTask,1,C,23,23,1,1018,7,c,m,r,90,434185,435203,122,f,NA,NA,NA,NA,NA,sub2
task,mainTask,1,C,24,24,1,991,4,c,m,r,77,437250,438241,109,f,NA,NA,NA,NA,NA,sub2
task,mainTask,1,C,25,25,1,957,7,c,m,r,90,440242,441199,122,f,NA,NA,NA,NA,NA,sub2
task,mainTask,1,C,26,26,1,1129,3,i,p,s,90,443263,444392,122,s,1,1,NA,NA,NA,sub2
task,mainTask,1,C,27,27,1,981,7,c,p,r,90,446290,447271,122,s,1,2,NA,NA,NA,sub2
task,mainTask,1,C,28,28,0,1118,8,i,m,s,77,449273,450391,122,s,1,3,NA,NA,NA,sub2
task,mainTask,1,C,29,29,1,934,7,c,m,r,90,452378,453312,122,s,1,4,NA,NA,NA,sub2
task,mainTask,1,C,30,30,1,1115,1,i,p,s,90,455378,456493,122,f,NA,NA,NA,NA,NA,sub2
task,mainTask,1,C,31,31,1,1051,2,c,p,r,77,458393,459444,109,f,NA,NA,NA,NA,NA,sub2
task,mainTask,1,C,32,32,1,1024,4,c,p,r,77,461353,462377,109,f,NA,NA,NA,NA,NA,sub2
task,mainTask,1,C,33,33,1,983,2,c,p,r,77,464410,465393,109,f,NA,NA,NA,NA,NA,sub2
task,mainTask,1,C,34,34,1,931,9,c,p,r,90,467409,468340,122,f,NA,NA,NA,NA,NA,sub2
task,mainTask,1,C,35,35,1,1028,6,i,p,r,77,470274,471302,109,s,3,1,NA,NA,NA,sub2
task,mainTask,1,C,36,36,1,1135,2,c,m,s,77,473264,474399,109,s,3,2,NA,NA,NA,sub2
task,mainTask,1,C,37,37,1,977,6,i,m,r,90,476357,477334,122,s,3,3,NA,NA,NA,sub2
task,mainTask,1,C,38,38,1,1249,7,c,p,s,90,479193,480442,122,s,3,4,NA,NA,NA,sub2
task,mainTask,1,C,39,39,1,1004,9,c,p,r,90,482638,483642,122,f,NA,NA,NA,NA,NA,sub2
task,mainTask,1,C,40,40,1,932,2,c,p,r,77,485608,486540,109,f,NA,NA,NA,NA,NA,sub2
task,mainTask,1,C,41,41,1,841,7,c,p,r,90,488481,489322,122,f,NA,NA,NA,NA,NA,sub2
task,mainTask,1,C,42,42,1,1113,4,c,p,r,77,491320,492433,109,f,NA,NA,NA,NA,NA,sub2
task,mainTask,1,C,43,43,1,879,9,c,p,r,90,494433,495312,122,f,NA,NA,NA,NA,NA,sub2
task,mainTask,1,C,44,44,1,985,2,c,m,s,77,497265,498250,109,s,4,1,NA,NA,NA,sub2
task,mainTask,1,C,45,45,1,1069,7,c,p,s,90,500280,501349,122,s,4,2,NA,NA,NA,sub2
task,mainTask,1,C,46,46,1,1174,3,i,p,r,90,503426,504600,122,s,4,3,NA,NA,NA,sub2
task,mainTask,1,C,47,47,1,1075,1,i,p,r,90,506609,507684,122,s,4,4,NA,NA,NA,sub2
task,mainTask,1,C,48,48,1,1100,3,i,m,s,77,509593,510693,109,f,NA,NA,NA,NA,NA,sub2
task,mainTask,1,C,49,49,1,884,2,c,m,r,77,512538,513422,109,f,NA,NA,NA,NA,NA,sub2
task,mainTask,1,C,50,50,1,767,4,c,m,r,77,515427,516194,109,f,NA,NA,NA,NA,NA,sub2
task,mainTask,1,C,51,51,1,883,9,c,m,r,90,518521,519404,122,f,NA,NA,NA,NA,NA,sub2
task,mainTask,1,C,52,52,1,871,2,c,m,r,77,521312,522183,109,f,NA,NA,NA,NA,NA,sub2
task,mainTask,1,C,53,53,1,964,6,i,m,r,90,524288,525252,122,s,3,1,NA,NA,NA,sub2
task,mainTask,1,C,54,54,1,1041,2,c,p,s,77,527321,528362,109,s,3,2,NA,NA,NA,sub2
task,mainTask,1,C,55,55,1,1233,3,i,p,r,90,530329,531562,122,s,3,3,NA,NA,NA,sub2
task,mainTask,1,C,56,56,1,1119,4,c,m,s,77,533417,534536,109,s,3,4,NA,NA,NA,sub2
task,mainTask,1,C,57,57,1,1313,6,i,p,s,77,536401,537714,109,f,NA,NA,NA,NA,NA,sub2
task,mainTask,1,C,58,58,1,952,2,c,p,r,77,539665,540617,109,f,NA,NA,NA,NA,NA,sub2
task,mainTask,1,C,59,59,1,923,7,c,p,r,90,542657,543580,122,f,NA,NA,NA,NA,NA,sub2
task,mainTask,1,C,60,60,1,997,2,c,p,r,77,545545,546542,109,f,NA,NA,NA,NA,NA,sub2
task,mainTask,1,C,61,61,1,1024,4,c,p,r,77,548440,549464,109,f,NA,NA,NA,NA,NA,sub2
task,mainTask,1,C,62,62,1,882,7,c,p,r,90,551321,552203,122,f,NA,NA,NA,NA,NA,sub2
task,mainTask,1,C,63,63,1,1241,2,c,m,s,77,554272,555513,109,s,4,1,NA,NA,NA,sub2
task,mainTask,1,C,64,64,1,947,9,c,p,s,90,557513,558460,122,s,4,2,NA,NA,NA,sub2
task,mainTask,1,C,65,65,1,1061,8,i,p,r,77,560419,561480,109,s,4,3,NA,NA,NA,sub2
task,mainTask,1,C,66,66,1,1011,1,i,p,r,90,563528,564539,122,s,4,4,NA,NA,NA,sub2
task,mainTask,1,C,67,67,1,967,2,c,p,r,77,566600,567567,109,f,NA,NA,NA,NA,NA,sub2
task,mainTask,1,C,68,68,1,1025,4,c,p,r,77,569576,570601,109,f,NA,NA,NA,NA,NA,sub2
task,mainTask,1,C,69,69,1,933,7,c,p,r,90,572593,573526,122,f,NA,NA,NA,NA,NA,sub2
task,mainTask,1,C,70,70,1,904,4,c,p,r,77,575569,576473,109,f,NA,NA,NA,NA,NA,sub2
task,mainTask,1,C,71,71,1,919,2,c,p,r,77,578433,579352,109,f,NA,NA,NA,NA,NA,sub2
task,mainTask,1,C,72,72,1,855,4,c,p,r,77,581209,582064,109,f,NA,NA,NA,NA,NA,sub2
task,mainTask,1,C,73,73,1,1194,9,c,p,r,90,584169,585363,122,s,2,1,NA,NA,NA,sub2
task,mainTask,1,C,74,74,1,934,7,c,p,r,90,587288,588222,122,s,2,2,NA,NA,NA,sub2
task,mainTask,1,C,75,75,1,1100,3,i,m,s,77,590153,591253,109,s,2,3,NA,NA,NA,sub2
task,mainTask,1,C,76,76,1,1109,6,i,p,s,77,593113,594222,109,s,2,4,NA,NA,NA,sub2
task,mainTask,1,C,77,77,1,1356,1,i,m,s,77,596105,597461,109,f,NA,NA,NA,NA,NA,sub2
task,mainTask,1,C,78,78,1,1046,4,c,m,r,77,599325,600371,109,f,NA,NA,NA,NA,NA,sub2
task,mainTask,1,C,79,79,1,929,7,c,m,r,90,602312,603241,122,f,NA,NA,NA,NA,NA,sub2
task,mainTask,1,C,80,80,1,1070,4,c,m,r,77,605265,606335,109,f,NA,NA,NA,NA,NA,sub2
task,mainTask,1,C,81,81,1,968,9,c,m,r,90,608345,609313,122,f,NA,NA,NA,NA,NA,sub2
task,mainTask,1,C,82,82,1,892,4,c,m,r,77,611161,612053,109,f,NA,NA,NA,NA,NA,sub2
task,mainTask,1,C,83,83,1,919,6,i,m,r,90,614152,615071,122,s,3,1,NA,NA,NA,sub2
task,mainTask,1,C,84,84,1,1125,9,c,p,s,90,617049,618174,122,s,3,2,NA,NA,NA,sub2
task,mainTask,1,C,85,85,1,764,1,i,p,r,90,620249,621013,122,s,3,3,NA,NA,NA,sub2
task,mainTask,1,C,86,86,1,989,9,c,m,s,90,622953,623942,122,s,3,4,NA,NA,NA,sub2
task,mainTask,1,C,87,87,1,1110,6,i,p,s,77,626025,627135,109,f,NA,NA,NA,NA,NA,sub2
task,mainTask,1,C,88,88,1,723,4,c,p,r,77,629019,629742,109,f,NA,NA,NA,NA,NA,sub2
task,mainTask,1,C,89,89,1,973,9,c,p,r,90,631681,632654,122,f,NA,NA,NA,NA,NA,sub2
task,mainTask,1,C,90,90,1,1017,7,c,p,r,90,634777,635794,122,f,NA,NA,NA,NA,NA,sub2
task,mainTask,1,C,91,91,1,833,4,c,p,r,77,637841,638674,109,f,NA,NA,NA,NA,NA,sub2
task,mainTask,1,C,92,92,1,958,9,c,p,r,90,640984,641942,122,f,NA,NA,NA,NA,NA,sub2
task,mainTask,1,C,93,93,1,936,2,c,p,r,77,643915,644851,109,s,2,1,NA,NA,NA,sub2
task,mainTask,1,C,94,94,1,986,4,c,p,r,77,646777,647763,109,s,2,2,NA,NA,NA,sub2
task,mainTask,1,C,95,95,0,923,1,i,m,s,90,649841,650764,109,s,2,3,NA,NA,NA,sub2
task,mainTask,1,C,96,96,1,1205,3,i,p,s,90,652849,654054,122,s,2,4,NA,NA,NA,sub2
task,mainTask,1,C,97,97,1,1199,9,c,p,r,90,655960,657159,122,f,NA,NA,NA,NA,NA,sub2
task,mainTask,1,C,98,98,1,915,4,c,p,r,77,659200,660115,109,f,NA,NA,NA,NA,NA,sub2
task,mainTask,1,C,99,99,1,1024,7,c,p,r,90,661968,662992,122,f,NA,NA,NA,NA,NA,sub2
task,mainTask,1,C,100,100,1,917,2,c,p,r,77,664864,665781,109,f,NA,NA,NA,NA,NA,sub2
task,mainTask,1,C,101,101,1,782,4,c,p,r,77,667751,668533,109,f,NA,NA,NA,NA,NA,sub2
task,mainTask,1,C,102,102,1,985,7,c,m,s,90,670488,671473,122,s,4,1,NA,NA,NA,sub2
task,mainTask,1,C,103,103,1,1342,9,c,p,s,90,673448,674790,122,s,4,2,NA,NA,NA,sub2
task,mainTask,1,C,104,104,1,1331,8,i,p,r,77,676663,677994,109,s,4,3,NA,NA,NA,sub2
task,mainTask,1,C,105,105,1,1154,3,i,p,r,90,679922,681076,122,s,4,4,NA,NA,NA,sub2
task,mainTask,1,C,106,106,1,1109,9,c,p,r,90,682938,684047,122,f,NA,NA,NA,NA,NA,sub2
task,mainTask,1,C,107,107,1,1023,2,c,p,r,77,686130,687153,109,f,NA,NA,NA,NA,NA,sub2
task,mainTask,1,C,108,108,1,928,9,c,p,r,90,689024,689952,122,f,NA,NA,NA,NA,NA,sub2
task,mainTask,1,C,109,109,1,1007,7,c,p,r,90,691996,693003,122,f,NA,NA,NA,NA,NA,sub2
task,mainTask,1,C,110,110,1,1227,9,c,p,r,90,695040,696267,122,f,NA,NA,NA,NA,NA,sub2
task,mainTask,1,C,111,111,1,855,7,c,p,r,90,698328,699183,122,f,NA,NA,NA,NA,NA,sub2
task,mainTask,1,C,112,112,1,783,9,c,p,r,90,701168,701951,122,s,2,1,NA,NA,NA,sub2
task,mainTask,1,C,113,113,1,869,4,c,p,r,77,703967,704836,109,s,2,2,NA,NA,NA,sub2
task,mainTask,1,C,114,114,1,1207,6,i,m,s,90,706759,707966,122,s,2,3,NA,NA,NA,sub2
task,mainTask,1,C,115,115,1,1230,1,i,p,s,90,709944,711174,122,s,2,4,NA,NA,NA,sub2
task,mainTask,1,C,116,116,1,938,6,i,m,s,90,713143,714081,122,f,NA,NA,NA,NA,NA,sub2
task,mainTask,1,C,117,117,0,1166,4,c,m,r,90,715975,717141,109,f,NA,NA,NA,NA,NA,sub2
task,mainTask,1,C,118,118,1,880,7,c,m,r,90,719023,719903,122,f,NA,NA,NA,NA,NA,sub2
task,mainTask,1,C,119,119,1,864,9,c,m,r,90,721936,722800,122,f,NA,NA,NA,NA,NA,sub2
task,mainTask,1,C,120,120,1,870,7,c,m,r,90,725032,725902,122,f,NA,NA,NA,NA,NA,sub2
task,mainTask,1,C,121,121,1,1032,4,c,m,r,77,727888,728920,109,f,NA,NA,NA,NA,NA,sub2
task,mainTask,1,C,122,122,1,892,2,c,m,r,77,730943,731835,109,s,2,1,NA,NA,NA,sub2
task,mainTask,1,C,123,123,1,918,4,c,m,r,77,734102,735020,109,s,2,2,NA,NA,NA,sub2
task,mainTask,1,C,124,124,1,1318,3,i,p,s,90,736936,738254,122,s,2,3,NA,NA,NA,sub2
task,mainTask,1,C,125,125,1,1222,6,i,m,s,90,740175,741397,122,s,2,4,NA,NA,NA,sub2
task,mainTask,1,C,126,126,0,1144,8,i,p,s,90,743447,744591,109,f,NA,NA,NA,NA,NA,sub2
task,mainTask,1,C,127,127,1,936,9,c,p,r,90,746680,747616,122,f,NA,NA,NA,NA,NA,sub2
task,mainTask,1,C,128,128,1,953,2,c,p,r,77,749671,750624,109,f,NA,NA,NA,NA,NA,sub2
task,mainTask,1,C,129,129,1,956,4,c,p,r,77,752599,753555,109,f,NA,NA,NA,NA,NA,sub2
task,mainTask,1,C,130,130,1,863,9,c,p,r,90,755611,756474,122,f,NA,NA,NA,NA,NA,sub2
task,mainTask,1,C,131,131,1,897,2,c,p,r,77,758416,759313,109,f,NA,NA,NA,NA,NA,sub2
task,mainTask,1,C,132,132,1,1012,4,c,m,s,77,761199,762211,109,s,4,1,NA,NA,NA,sub2
task,mainTask,1,C,133,133,1,852,9,c,p,s,90,764233,765085,122,s,4,2,NA,NA,NA,sub2
task,mainTask,1,C,134,134,1,1124,1,i,p,r,90,766960,768084,122,s,4,3,NA,NA,NA,sub2
task,mainTask,1,C,135,135,1,927,3,i,p,r,90,770024,770951,122,s,4,4,NA,NA,NA,sub2
task,mainTask,1,C,136,136,1,1225,8,i,m,s,90,772976,774201,122,f,NA,NA,NA,NA,NA,sub2
task,mainTask,1,C,137,137,1,1383,2,c,m,r,77,776567,777950,109,f,NA,NA,NA,NA,NA,sub2
task,mainTask,1,C,138,138,1,844,4,c,m,r,77,779848,780692,109,f,NA,NA,NA,NA,NA,sub2
task,mainTask,1,C,139,139,1,1000,7,c,m,r,90,782743,783743,122,f,NA,NA,NA,NA,NA,sub2
task,mainTask,1,C,140,140,1,1163,4,c,m,r,77,785770,786933,109,f,NA,NA,NA,NA,NA,sub2
task,mainTask,1,C,141,141,1,875,2,c,m,r,77,788887,789762,109,f,NA,NA,NA,NA,NA,sub2
task,mainTask,1,C,142,142,1,1036,3,i,p,s,90,791815,792851,122,s,1,1,NA,NA,NA,sub2
task,mainTask,1,C,143,143,1,904,9,c,p,r,90,794899,795803,122,s,1,2,NA,NA,NA,sub2
task,mainTask,1,C,144,144,1,1207,3,i,m,s,77,797735,798942,109,s,1,3,NA,NA,NA,sub2
task,mainTask,1,C,145,145,1,1002,9,c,m,r,90,800871,801873,122,s,1,4,NA,NA,NA,sub2
task,mainTask,1,C,146,146,1,1165,2,c,m,r,77,803914,805079,109,f,NA,NA,NA,NA,NA,sub2
task,mainTask,1,C,147,147,1,1031,4,c,m,r,77,807063,808094,109,f,NA,NA,NA,NA,NA,sub2
task,mainTask,1,C,148,148,1,819,2,c,m,r,77,810111,810930,109,f,NA,NA,NA,NA,NA,sub2
task,mainTask,1,C,149,149,1,884,4,c,m,r,77,812879,813763,109,f,NA,NA,NA,NA,NA,sub2
task,mainTask,1,C,150,150,1,978,9,c,m,r,90,815733,816711,122,f,NA,NA,NA,NA,NA,sub2
task,mainTask,1,C,151,151,0,809,1,i,m,r,90,818624,819433,109,s,3,1,NA,NA,NA,sub2
task,mainTask,1,C,152,152,1,1169,7,c,p,s,90,821567,822736,122,s,3,2,NA,NA,NA,sub2
task,mainTask,1,C,153,153,1,1153,3,i,p,r,90,824775,825928,122,s,3,3,NA,NA,NA,sub2
task,mainTask,1,C,154,154,1,1350,7,c,m,s,90,827992,829342,122,s,3,4,NA,NA,NA,sub2
task,mainTask,1,C,155,155,1,769,2,c,m,r,77,831215,831984,109,f,NA,NA,NA,NA,NA,sub2
task,mainTask,1,C,156,156,1,1111,7,c,m,r,90,833982,835093,122,f,NA,NA,NA,NA,NA,sub2
task,mainTask,1,C,157,157,1,934,9,c,m,r,90,837127,838061,122,f,NA,NA,NA,NA,NA,sub2
task,mainTask,1,C,158,158,1,957,7,c,m,r,90,840022,840979,122,f,NA,NA,NA,NA,NA,sub2
task,mainTask,1,C,159,159,1,939,2,c,m,r,77,843007,843946,109,f,NA,NA,NA,NA,NA,sub2
task,mainTask,1,C,160,160,1,1002,9,c,m,r,90,845911,846913,122,f,NA,NA,NA,NA,NA,sub2
main1-2,blockBreak,1,NA,NA,NA,NA,NA,NA,NA,NA,NA,NA,NA,NA,NA,NA,NA,NA,848223,901491,53268,sub2
task,mainTask,2,D,161,1,1,1056,4,c,p,n,77,905047,906103,109,f,NA,NA,NA,NA,NA,sub2
task,mainTask,2,D,162,2,1,884,7,c,m,s,90,908367,909251,122,f,NA,NA,NA,NA,NA,sub2
task,mainTask,2,D,163,3,1,1089,9,c,p,s,90,911255,912344,122,f,NA,NA,NA,NA,NA,sub2
task,mainTask,2,D,164,4,1,1061,4,c,m,s,77,914280,915341,109,f,NA,NA,NA,NA,NA,sub2
task,mainTask,2,D,165,5,1,1141,2,c,p,s,77,917311,918452,109,f,NA,NA,NA,NA,NA,sub2
task,mainTask,2,D,166,6,1,1165,6,i,m,s,90,920287,921452,122,s,1,1,NA,NA,NA,sub2
task,mainTask,2,D,167,7,1,1142,7,c,m,r,90,923471,924613,122,s,1,2,NA,NA,NA,sub2
task,mainTask,2,D,168,8,1,1099,1,i,p,s,90,926583,927682,122,s,1,3,NA,NA,NA,sub2
task,mainTask,2,D,169,9,1,953,7,c,p,r,90,929703,930656,122,s,1,4,NA,NA,NA,sub2
task,mainTask,2,D,170,10,1,1116,9,c,m,s,90,932518,933634,122,f,NA,NA,NA,NA,NA,sub2
task,mainTask,2,D,171,11,1,1054,7,c,p,s,90,935558,936612,122,f,NA,NA,NA,NA,NA,sub2
task,mainTask,2,D,172,12,0,NA,4,c,m,s,NA,938503,NA,109,f,NA,NA,NA,NA,NA,sub2
task,mainTask,2,D,173,13,0,NA,2,c,p,s,NA,941919,NA,109,f,NA,NA,NA,NA,NA,sub2
task,mainTask,2,D,174,14,1,937,9,c,m,s,90,945183,946120,122,f,NA,NA,NA,NA,NA,sub2
task,mainTask,2,D,175,15,0,1238,8,i,p,s,90,948219,949457,109,s,1,1,NA,NA,NA,sub2
task,mainTask,2,D,176,16,1,897,9,c,p,r,90,951463,952360,122,s,1,2,NA,NA,NA,sub2
task,mainTask,2,D,177,17,0,1004,1,i,m,s,90,954238,955242,109,s,1,3,NA,NA,NA,sub2
task,mainTask,2,D,178,18,1,1141,4,c,m,r,77,957402,958543,109,s,1,4,NA,NA,NA,sub2
task,mainTask,2,D,179,19,1,938,7,c,p,s,90,960406,961344,122,f,NA,NA,NA,NA,NA,sub2
task,mainTask,2,D,180,20,1,1144,9,c,m,s,90,963309,964453,122,f,NA,NA,NA,NA,NA,sub2
task,mainTask,2,D,181,21,1,1049,2,c,p,s,77,966382,967431,109,f,NA,NA,NA,NA,NA,sub2
task,mainTask,2,D,182,22,1,882,7,c,m,s,90,969462,970344,122,f,NA,NA,NA,NA,NA,sub2
task,mainTask,2,D,183,23,1,1057,2,c,p,s,77,972430,973487,109,f,NA,NA,NA,NA,NA,sub2
task,mainTask,2,D,184,24,1,1300,4,c,m,s,77,975366,976666,109,f,NA,NA,NA,NA,NA,sub2
task,mainTask,2,D,185,25,1,1127,6,i,p,s,77,978718,979845,109,s,1,1,NA,NA,NA,sub2
task,mainTask,2,D,186,26,1,998,9,c,p,r,90,981894,982892,122,s,1,2,NA,NA,NA,sub2
task,mainTask,2,D,187,27,0,1202,8,i,m,s,77,984847,986049,122,s,1,3,NA,NA,NA,sub2
task,mainTask,2,D,188,28,1,942,2,c,m,r,77,987990,988932,109,s,1,4,NA,NA,NA,sub2
task,mainTask,2,D,189,29,1,915,8,i,m,r,90,990798,991713,122,f,NA,NA,NA,NA,NA,sub2
task,mainTask,2,D,190,30,1,1313,4,c,p,s,77,993682,994995,109,f,NA,NA,NA,NA,NA,sub2
task,mainTask,2,D,191,31,0,955,2,c,m,s,90,996959,997914,109,f,NA,NA,NA,NA,NA,sub2
task,mainTask,2,D,192,32,1,1441,4,c,p,s,77,999822,1001263,109,f,NA,NA,NA,NA,NA,sub2
task,mainTask,2,D,193,33,1,1281,2,c,m,s,77,1003246,1004527,109,f,NA,NA,NA,NA,NA,sub2
task,mainTask,2,D,194,34,1,1113,7,c,p,s,90,1006270,1007383,122,f,NA,NA,NA,NA,NA,sub2
task,mainTask,2,D,195,35,0,1076,3,i,p,r,77,1009361,1010437,122,s,3,1,NA,NA,NA,sub2
task,mainTask,2,D,196,36,1,1291,9,c,m,s,90,1012294,1013585,122,s,3,2,NA,NA,NA,sub2
task,mainTask,2,D,197,37,0,1257,3,i,m,r,90,1015665,1016922,109,s,3,3,NA,NA,NA,sub2
task,mainTask,2,D,198,38,1,926,7,c,p,s,90,1018984,1019910,122,s,3,4,NA,NA,NA,sub2
task,mainTask,2,D,199,39,1,1140,3,i,p,r,90,1021998,1023138,122,f,NA,NA,NA,NA,NA,sub2
task,mainTask,2,D,200,40,1,1048,2,c,m,s,77,1025085,1026133,109,f,NA,NA,NA,NA,NA,sub2
task,mainTask,2,D,201,41,1,934,7,c,p,s,90,1028171,1029105,122,f,NA,NA,NA,NA,NA,sub2
task,mainTask,2,D,202,42,0,1202,4,c,m,s,90,1031005,1032207,109,f,NA,NA,NA,NA,NA,sub2
task,mainTask,2,D,203,43,1,1197,2,c,p,s,77,1034302,1035499,109,f,NA,NA,NA,NA,NA,sub2
task,mainTask,2,D,204,44,1,1008,7,c,m,s,90,1037486,1038494,122,s,4,1,NA,NA,NA,sub2
task,mainTask,2,D,205,45,1,1149,2,c,p,s,77,1040424,1041573,109,s,4,2,NA,NA,NA,sub2
task,mainTask,2,D,206,46,1,893,1,i,p,r,90,1043454,1044347,122,s,4,3,NA,NA,NA,sub2
task,mainTask,2,D,207,47,0,912,6,i,p,r,90,1046317,1047229,109,s,4,4,NA,NA,NA,sub2
task,mainTask,2,D,208,48,1,1075,3,i,p,r,90,1049109,1050184,122,f,NA,NA,NA,NA,NA,sub2
task,mainTask,2,D,209,49,1,1171,7,c,m,s,90,1052264,1053435,122,f,NA,NA,NA,NA,NA,sub2
task,mainTask,2,D,210,50,1,1102,9,c,p,s,90,1055362,1056464,122,f,NA,NA,NA,NA,NA,sub2
task,mainTask,2,D,211,51,0,1206,2,c,m,s,90,1058349,1059555,109,f,NA,NA,NA,NA,NA,sub2
task,mainTask,2,D,212,52,1,894,7,c,p,s,90,1061549,1062443,122,f,NA,NA,NA,NA,NA,sub2
task,mainTask,2,D,213,53,1,1215,4,c,m,s,77,1064320,1065535,109,f,NA,NA,NA,NA,NA,sub2
task,mainTask,2,D,214,54,1,1010,8,i,m,r,90,1067445,1068455,122,s,3,1,NA,NA,NA,sub2
task,mainTask,2,D,215,55,1,1224,2,c,p,s,77,1070312,1071536,109,s,3,2,NA,NA,NA,sub2
task,mainTask,2,D,216,56,1,1047,6,i,p,r,77,1073622,1074669,109,s,3,3,NA,NA,NA,sub2
task,mainTask,2,D,217,57,0,1038,2,c,m,s,90,1076741,1077779,109,s,3,4,NA,NA,NA,sub2
task,mainTask,2,D,218,58,0,938,6,i,m,r,77,1079665,1080603,122,f,NA,NA,NA,NA,NA,sub2
task,mainTask,2,D,219,59,1,1173,2,c,p,s,77,1082658,1083831,109,f,NA,NA,NA,NA,NA,sub2
task,mainTask,2,D,220,60,1,1012,4,c,m,s,77,1085709,1086721,109,f,NA,NA,NA,NA,NA,sub2
task,mainTask,2,D,221,61,1,1358,9,c,p,s,90,1088686,1090044,122,f,NA,NA,NA,NA,NA,sub2
task,mainTask,2,D,222,62,1,1393,7,c,m,s,90,1091831,1093224,122,f,NA,NA,NA,NA,NA,sub2
task,mainTask,2,D,223,63,0,1214,4,c,p,s,90,1095149,1096363,109,f,NA,NA,NA,NA,NA,sub2
task,mainTask,2,D,224,64,1,886,9,c,m,s,90,1098208,1099094,122,s,4,1,NA,NA,NA,sub2
task,mainTask,2,D,225,65,1,1013,7,c,p,s,90,1101029,1102042,122,s,4,2,NA,NA,NA,sub2
task,mainTask,2,D,226,66,1,1212,6,i,p,r,77,1104117,1105329,109,s,4,3,NA,NA,NA,sub2
task,mainTask,2,D,227,67,1,1381,3,i,p,r,90,1107392,1108773,122,s,4,4,NA,NA,NA,sub2
task,mainTask,2,D,228,68,1,1176,4,c,m,s,77,1110804,1111980,109,f,NA,NA,NA,NA,NA,sub2
task,mainTask,2,D,229,69,1,1083,9,c,p,s,90,1113951,1115034,122,f,NA,NA,NA,NA,NA,sub2
task,mainTask,2,D,230,70,1,1252,7,c,m,s,90,1117101,1118353,122,f,NA,NA,NA,NA,NA,sub2
task,mainTask,2,D,231,71,1,1161,2,c,p,s,77,1120470,1121631,109,f,NA,NA,NA,NA,NA,sub2
task,mainTask,2,D,232,72,1,1100,4,c,m,s,77,1123623,1124723,109,f,NA,NA,NA,NA,NA,sub2
task,mainTask,2,D,233,73,1,1012,2,c,p,s,77,1126591,1127603,109,f,NA,NA,NA,NA,NA,sub2
task,mainTask,2,D,234,74,1,952,9,c,p,r,90,1129613,1130565,122,s,2,1,NA,NA,NA,sub2
task,mainTask,2,D,235,75,1,933,7,c,p,r,90,1132501,1133434,122,s,2,2,NA,NA,NA,sub2
task,mainTask,2,D,236,76,1,1210,1,i,m,s,77,1135470,1136680,109,s,2,3,NA,NA,NA,sub2
task,mainTask,2,D,237,77,1,968,3,i,p,s,90,1138596,1139564,122,s,2,4,NA,NA,NA,sub2
task,mainTask,2,D,238,78,1,1192,7,c,m,s,90,1141495,1142687,122,f,NA,NA,NA,NA,NA,sub2
task,mainTask,2,D,239,79,1,1046,2,c,p,s,77,1144780,1145826,109,f,NA,NA,NA,NA,NA,sub2
task,mainTask,2,D,240,80,1,924,9,c,m,s,90,1147749,1148673,122,f,NA,NA,NA,NA,NA,sub2
task,mainTask,2,D,241,81,1,854,2,c,p,s,77,1150548,1151402,109,f,NA,NA,NA,NA,NA,sub2
task,mainTask,2,D,242,82,1,1171,4,c,m,s,77,1153341,1154512,109,f,NA,NA,NA,NA,NA,sub2
task,mainTask,2,D,243,83,1,1203,2,c,p,s,77,1156596,1157799,109,f,NA,NA,NA,NA,NA,sub2
task,mainTask,2,D,244,84,1,1067,3,i,p,r,90,1159860,1160927,122,s,3,1,NA,NA,NA,sub2
task,mainTask,2,D,245,85,1,1412,2,c,m,s,77,1162988,1164400,109,s,3,2,NA,NA,NA,sub2
task,mainTask,2,D,246,86,1,1210,8,i,m,r,90,1166413,1167623,122,s,3,3,NA,NA,NA,sub2
task,mainTask,2,D,247,87,1,1143,9,c,p,s,90,1169620,1170763,122,s,3,4,NA,NA,NA,sub2
task,mainTask,2,D,248,88,1,808,1,i,p,r,90,1172684,1173492,122,f,NA,NA,NA,NA,NA,sub2
task,mainTask,2,D,249,89,1,853,9,c,m,s,90,1175756,1176609,122,f,NA,NA,NA,NA,NA,sub2
task,mainTask,2,D,250,90,1,843,7,c,p,s,90,1178708,1179551,122,f,NA,NA,NA,NA,NA,sub2
task,mainTask,2,D,251,91,1,1175,2,c,m,s,77,1181597,1182772,109,f,NA,NA,NA,NA,NA,sub2
task,mainTask,2,D,252,92,1,893,4,c,p,s,77,1184860,1185753,109,f,NA,NA,NA,NA,NA,sub2
task,mainTask,2,D,253,93,1,1002,9,c,m,s,90,1187740,1188742,122,f,NA,NA,NA,NA,NA,sub2
task,mainTask,2,D,254,94,1,875,7,c,m,r,90,1190724,1191599,122,s,2,1,NA,NA,NA,sub2
task,mainTask,2,D,255,95,1,1319,4,c,m,r,77,1193572,1194891,109,s,2,2,NA,NA,NA,sub2
task,mainTask,2,D,256,96,1,1018,3,i,p,s,90,1196985,1198003,122,s,2,3,NA,NA,NA,sub2
task,mainTask,2,D,257,97,1,885,8,i,m,s,90,1200085,1200970,122,s,2,4,NA,NA,NA,sub2
task,mainTask,2,D,258,98,1,943,6,i,m,r,90,1202940,1203883,122,f,NA,NA,NA,NA,NA,sub2
task,mainTask,2,D,259,99,1,1266,9,c,p,s,90,1205789,1207055,122,f,NA,NA,NA,NA,NA,sub2
task,mainTask,2,D,260,100,1,832,7,c,m,s,90,1209133,1209965,122,f,NA,NA,NA,NA,NA,sub2
task,mainTask,2,D,261,101,1,1009,4,c,p,s,77,1211957,1212966,109,f,NA,NA,NA,NA,NA,sub2
task,mainTask,2,D,262,102,0,1076,2,c,m,s,90,1214854,1215930,109,f,NA,NA,NA,NA,NA,sub2
task,mainTask,2,D,263,103,0,1007,4,c,p,s,90,1218046,1219053,109,f,NA,NA,NA,NA,NA,sub2
task,mainTask,2,D,264,104,1,1207,7,c,m,s,90,1221124,1222331,122,s,4,1,NA,NA,NA,sub2
task,mainTask,2,D,265,105,1,1231,4,c,p,s,77,1224460,1225691,109,s,4,2,NA,NA,NA,sub2
task,mainTask,2,D,266,106,1,1069,1,i,p,r,90,1227694,1228763,122,s,4,3,NA,NA,NA,sub2
task,mainTask,2,D,267,107,1,1024,3,i,p,r,90,1230661,1231685,122,s,4,4,NA,NA,NA,sub2
task,mainTask,2,D,268,108,1,862,1,i,p,r,90,1233653,1234515,122,f,NA,NA,NA,NA,NA,sub2
task,mainTask,2,D,269,109,0,1146,4,c,m,s,90,1236517,1237663,109,f,NA,NA,NA,NA,NA,sub2
task,mainTask,2,D,270,110,1,1250,2,c,p,s,77,1239583,1240833,109,f,NA,NA,NA,NA,NA,sub2
task,mainTask,2,D,271,111,1,897,9,c,m,s,90,1242916,1243813,122,f,NA,NA,NA,NA,NA,sub2
task,mainTask,2,D,272,112,1,1074,4,c,p,s,77,1245845,1246919,109,f,NA,NA,NA,NA,NA,sub2
task,mainTask,2,D,273,113,1,1263,7,c,p,r,90,1248996,1250259,122,s,2,1,NA,NA,NA,sub2
task,mainTask,2,D,274,114,1,902,4,c,p,r,77,1252389,1253291,109,s,2,2,NA,NA,NA,sub2
task,mainTask,2,D,275,115,1,1315,6,i,m,s,90,1255316,1256631,122,s,2,3,NA,NA,NA,sub2
task,mainTask,2,D,276,116,1,1230,3,i,p,s,90,1258540,1259770,122,s,2,4,NA,NA,NA,sub2
task,mainTask,2,D,277,117,1,1402,7,c,m,s,90,1261612,1263014,122,f,NA,NA,NA,NA,NA,sub2
task,mainTask,2,D,278,118,1,1186,9,c,p,s,90,1265037,1266223,122,f,NA,NA,NA,NA,NA,sub2
task,mainTask,2,D,279,119,1,1042,4,c,m,s,77,1268212,1269254,109,f,NA,NA,NA,NA,NA,sub2
task,mainTask,2,D,280,120,1,1264,2,c,p,s,77,1271349,1272613,109,f,NA,NA,NA,NA,NA,sub2
task,mainTask,2,D,281,121,1,1452,7,c,m,s,90,1274653,1276105,122,f,NA,NA,NA,NA,NA,sub2
task,mainTask,2,D,282,122,1,1197,4,c,p,s,77,1278105,1279302,109,f,NA,NA,NA,NA,NA,sub2
task,mainTask,2,D,283,123,1,1501,9,c,p,r,90,1281412,1282913,122,s,2,1,NA,NA,NA,sub2
task,mainTask,2,D,284,124,1,1034,2,c,p,r,77,1284650,1285684,109,s,2,2,NA,NA,NA,sub2
task,mainTask,2,D,285,125,0,1455,3,i,m,s,90,1287628,1289083,109,s,2,3,NA,NA,NA,sub2
task,mainTask,2,D,286,126,1,968,1,i,p,s,90,1290996,1291964,122,s,2,4,NA,NA,NA,sub2
task,mainTask,2,D,287,127,1,1240,7,c,m,s,90,1293820,1295060,122,f,NA,NA,NA,NA,NA,sub2
task,mainTask,2,D,288,128,1,916,9,c,p,s,90,1297028,1297944,122,f,NA,NA,NA,NA,NA,sub2
task,mainTask,2,D,289,129,1,1063,7,c,m,s,90,1300052,1301115,122,f,NA,NA,NA,NA,NA,sub2
task,mainTask,2,D,290,130,1,825,2,c,p,s,77,1303198,1304023,109,f,NA,NA,NA,NA,NA,sub2
task,mainTask,2,D,291,131,0,1388,4,c,m,s,90,1305916,1307304,109,f,NA,NA,NA,NA,NA,sub2
task,mainTask,2,D,292,132,1,1286,7,c,p,s,90,1309277,1310563,122,f,NA,NA,NA,NA,NA,sub2
task,mainTask,2,D,293,133,1,1037,9,c,m,s,90,1312628,1313665,122,s,4,1,NA,NA,NA,sub2
task,mainTask,2,D,294,134,1,1142,7,c,p,s,90,1315532,1316674,122,s,4,2,NA,NA,NA,sub2
task,mainTask,2,D,295,135,1,1131,3,i,p,r,90,1318548,1319679,122,s,4,3,NA,NA,NA,sub2
task,mainTask,2,D,296,136,0,932,8,i,p,r,90,1321691,1322623,109,s,4,4,NA,NA,NA,sub2
task,mainTask,2,D,297,137,1,950,7,c,m,s,90,1324603,1325553,122,f,NA,NA,NA,NA,NA,sub2
task,mainTask,2,D,298,138,1,1022,9,c,p,s,90,1327499,1328521,122,f,NA,NA,NA,NA,NA,sub2
task,mainTask,2,D,299,139,1,1441,2,c,m,s,77,1330452,1331893,109,f,NA,NA,NA,NA,NA,sub2
task,mainTask,2,D,300,140,1,1100,7,c,p,s,90,1333667,1334767,122,f,NA,NA,NA,NA,NA,sub2
task,mainTask,2,D,301,141,1,1126,3,i,m,s,77,1336835,1337961,109,s,1,1,NA,NA,NA,sub2
task,mainTask,2,D,302,142,1,1196,7,c,m,r,90,1339860,1341056,122,s,1,2,NA,NA,NA,sub2
task,mainTask,2,D,303,143,0,1139,1,i,p,s,77,1342917,1344056,122,s,1,3,NA,NA,NA,sub2
task,mainTask,2,D,304,144,1,1065,7,c,p,r,90,1346163,1347228,122,s,1,4,NA,NA,NA,sub2
task,mainTask,2,D,305,145,1,1172,9,c,m,s,90,1349180,1350352,122,f,NA,NA,NA,NA,NA,sub2
task,mainTask,2,D,306,146,1,948,4,c,p,s,77,1352315,1353263,109,f,NA,NA,NA,NA,NA,sub2
task,mainTask,2,D,307,147,1,1341,2,c,m,s,77,1355331,1356672,109,f,NA,NA,NA,NA,NA,sub2
task,mainTask,2,D,308,148,1,1303,7,c,p,s,90,1358740,1360043,122,f,NA,NA,NA,NA,NA,sub2
task,mainTask,2,D,309,149,1,1365,2,c,m,s,77,1362123,1363488,109,f,NA,NA,NA,NA,NA,sub2
task,mainTask,2,D,310,150,1,1146,4,c,p,s,77,1365451,1366597,109,f,NA,NA,NA,NA,NA,sub2
task,mainTask,2,D,311,151,1,1324,8,i,p,r,77,1368741,1370065,109,s,3,1,NA,NA,NA,sub2
task,mainTask,2,D,312,152,1,861,7,c,m,s,90,1371932,1372793,122,s,3,2,NA,NA,NA,sub2
task,mainTask,2,D,313,153,1,1196,8,i,m,r,90,1374747,1375943,122,s,3,3,NA,NA,NA,sub2
task,mainTask,2,D,314,154,1,1086,2,c,p,s,77,1377854,1378940,109,s,3,4,NA,NA,NA,sub2
task,mainTask,2,D,315,155,1,958,6,i,p,r,77,1380995,1381953,109,f,NA,NA,NA,NA,NA,sub2
task,mainTask,2,D,316,156,1,938,7,c,m,s,90,1383843,1384781,122,f,NA,NA,NA,NA,NA,sub2
task,mainTask,2,D,317,157,1,1109,9,c,p,s,90,1386894,1388003,122,f,NA,NA,NA,NA,NA,sub2
task,mainTask,2,D,318,158,1,1184,4,c,m,s,77,1389900,1391084,109,f,NA,NA,NA,NA,NA,sub2
task,mainTask,2,D,319,159,1,981,2,c,p,s,77,1392963,1393944,109,f,NA,NA,NA,NA,NA,sub2
task,mainTask,2,D,320,160,1,943,9,c,m,s,90,1395931,1396874,122,f,NA,NA,NA,NA,NA,sub2
main1-2,blockBreak,2,NA,NA,NA,NA,NA,NA,NA,NA,NA,NA,NA,NA,NA,NA,NA,NA,1398364,1535249,136885,sub2
task,mainTask,3,B,321,1,0,1145,6,i,m,n,77,1538778,1539923,122,f,NA,NA,NA,NA,NA,sub2
task,mainTask,3,B,322,2,1,864,1,i,p,s,90,1541979,1542843,122,f,NA,NA,NA,NA,NA,sub2
task,mainTask,3,B,323,3,1,918,6,i,m,s,90,1544835,1545753,122,f,NA,NA,NA,NA,NA,sub2
task,mainTask,3,B,324,4,1,1056,1,i,p,s,90,1547810,1548866,122,f,NA,NA,NA,NA,NA,sub2
task,mainTask,3,B,325,5,0,875,3,i,m,s,90,1550826,1551701,109,f,NA,NA,NA,NA,NA,sub2
task,mainTask,3,B,326,6,1,822,1,i,p,s,90,1553718,1554540,122,s,1,1,NA,NA,NA,sub2
task,mainTask,3,B,327,7,1,901,7,c,p,r,90,1556620,1557521,122,s,1,2,NA,NA,NA,sub2
task,mainTask,3,B,328,8,0,861,3,i,m,s,90,1559410,1560271,109,s,1,3,NA,NA,NA,sub2
task,mainTask,3,B,329,9,1,852,4,c,m,r,77,1562244,1563096,109,s,1,4,NA,NA,NA,sub2
task,mainTask,3,B,330,10,1,1139,7,c,m,r,90,1565146,1566285,122,f,NA,NA,NA,NA,NA,sub2
task,mainTask,3,B,331,11,1,1244,6,i,p,s,77,1568218,1569462,109,f,NA,NA,NA,NA,NA,sub2
task,mainTask,3,B,332,12,0,892,1,i,m,s,90,1571370,1572262,109,f,NA,NA,NA,NA,NA,sub2
task,mainTask,3,B,333,13,0,1362,3,i,p,s,77,1574331,1575693,122,f,NA,NA,NA,NA,NA,sub2
task,mainTask,3,B,334,14,1,1678,8,i,m,s,90,1577697,1579375,122,f,NA,NA,NA,NA,NA,sub2
task,mainTask,3,B,335,15,0,NA,3,i,p,s,NA,1581146,NA,122,f,NA,NA,NA,NA,NA,sub2
task,mainTask,3,B,336,16,1,1401,8,i,m,s,90,1584523,1585924,122,s,1,1,NA,NA,NA,sub2
task,mainTask,3,B,337,17,1,1152,9,c,m,r,90,1587842,1588994,122,s,1,2,NA,NA,NA,sub2
task,mainTask,3,B,338,18,0,NA,3,i,p,s,NA,1591042,NA,122,s,1,3,NA,NA,NA,sub2
task,mainTask,3,B,339,19,1,1153,2,c,p,r,77,1594426,1595579,109,s,1,4,NA,NA,NA,sub2
task,mainTask,3,B,340,20,1,881,4,c,p,r,77,1597643,1598524,109,f,NA,NA,NA,NA,NA,sub2
task,mainTask,3,B,341,21,0,972,3,i,m,s,90,1600650,1601622,109,f,NA,NA,NA,NA,NA,sub2
task,mainTask,3,B,342,22,1,1091,1,i,p,s,90,1603570,1604661,122,f,NA,NA,NA,NA,NA,sub2
task,mainTask,3,B,343,23,1,962,3,i,m,s,77,1606554,1607516,109,f,NA,NA,NA,NA,NA,sub2
task,mainTask,3,B,344,24,1,1178,1,i,p,s,90,1609523,1610701,122,f,NA,NA,NA,NA,NA,sub2
task,mainTask,3,B,345,25,1,1138,8,i,m,s,90,1612642,1613780,122,f,NA,NA,NA,NA,NA,sub2
task,mainTask,3,B,346,26,1,907,1,i,p,s,90,1615766,1616673,122,s,1,1,NA,NA,NA,sub2
task,mainTask,3,B,347,27,1,1170,2,c,p,r,77,1618546,1619716,109,s,1,2,NA,NA,NA,sub2
task,mainTask,3,B,348,28,1,1080,3,i,m,s,77,1621593,1622673,109,s,1,3,NA,NA,NA,sub2
task,mainTask,3,B,349,29,1,1030,7,c,m,r,90,1624634,1625664,122,s,1,4,NA,NA,NA,sub2
task,mainTask,3,B,350,30,1,1097,1,i,p,s,90,1627650,1628747,122,f,NA,NA,NA,NA,NA,sub2
task,mainTask,3,B,351,31,1,1206,3,i,m,s,77,1630882,1632088,109,f,NA,NA,NA,NA,NA,sub2
task,mainTask,3,B,352,32,0,915,8,i,p,s,90,1634019,1634934,109,f,NA,NA,NA,NA,NA,sub2
task,mainTask,3,B,353,33,0,1165,1,i,m,s,90,1636954,1638119,109,f,NA,NA,NA,NA,NA,sub2
task,mainTask,3,B,354,34,1,1204,8,i,m,r,90,1640146,1641350,122,s,3,1,NA,NA,NA,sub2
task,mainTask,3,B,355,35,1,1247,9,c,p,s,90,1643587,1644834,122,s,3,2,NA,NA,NA,sub2
task,mainTask,3,B,356,36,1,1070,8,i,p,r,77,1646721,1647791,109,s,3,3,NA,NA,NA,sub2
task,mainTask,3,B,357,37,1,920,9,c,m,s,90,1649825,1650745,122,s,3,4,NA,NA,NA,sub2
task,mainTask,3,B,358,38,1,855,1,i,p,s,90,1652896,1653751,122,f,NA,NA,NA,NA,NA,sub2
task,mainTask,3,B,359,39,0,1257,6,i,m,s,77,1655794,1657051,122,f,NA,NA,NA,NA,NA,sub2
task,mainTask,3,B,360,40,1,1230,3,i,p,s,90,1659274,1660504,122,f,NA,NA,NA,NA,NA,sub2
task,mainTask,3,B,361,41,1,1340,1,i,m,s,77,1662393,1663733,109,f,NA,NA,NA,NA,NA,sub2
task,mainTask,3,B,362,42,1,1378,8,i,p,s,77,1665697,1667075,109,f,NA,NA,NA,NA,NA,sub2
task,mainTask,3,B,363,43,1,1238,1,i,m,s,77,1669025,1670263,109,f,NA,NA,NA,NA,NA,sub2
task,mainTask,3,B,364,44,1,1316,9,c,p,s,90,1672146,1673462,122,s,4,1,NA,NA,NA,sub2
task,mainTask,3,B,365,45,1,1360,7,c,m,s,90,1675378,1676738,122,s,4,2,NA,NA,NA,sub2
task,mainTask,3,B,366,46,1,1284,1,i,m,r,77,1678769,1680053,109,s,4,3,NA,NA,NA,sub2
task,mainTask,3,B,367,47,1,1133,3,i,m,r,77,1682080,1683213,109,s,4,4,NA,NA,NA,sub2
task,mainTask,3,B,368,48,1,1202,6,i,p,s,77,1685281,1686483,109,f,NA,NA,NA,NA,NA,sub2
task,mainTask,3,B,369,49,1,1033,1,i,m,s,77,1688682,1689715,109,f,NA,NA,NA,NA,NA,sub2
task,mainTask,3,B,370,50,1,1005,8,i,p,s,77,1691609,1692614,109,f,NA,NA,NA,NA,NA,sub2
task,mainTask,3,B,371,51,1,1357,6,i,m,s,90,1695057,1696414,122,f,NA,NA,NA,NA,NA,sub2
task,mainTask,3,B,372,52,1,1076,8,i,p,s,77,1698337,1699413,109,f,NA,NA,NA,NA,NA,sub2
task,mainTask,3,B,373,53,1,1264,3,i,p,r,90,1701516,1702780,122,s,3,1,NA,NA,NA,sub2
task,mainTask,3,B,374,54,1,1152,9,c,m,s,90,1704730,1705882,122,s,3,2,NA,NA,NA,sub2
task,mainTask,3,B,375,55,0,1300,6,i,m,r,77,1707720,1709020,122,s,3,3,NA,NA,NA,sub2
task,mainTask,3,B,376,56,1,1012,2,c,p,s,77,1711080,1712092,109,s,3,4,NA,NA,NA,sub2
task,mainTask,3,B,377,57,1,1222,8,i,m,s,90,1714104,1715326,122,f,NA,NA,NA,NA,NA,sub2
task,mainTask,3,B,378,58,1,963,1,i,p,s,90,1717448,1718411,122,f,NA,NA,NA,NA,NA,sub2
task,mainTask,3,B,379,59,1,1059,3,i,m,s,77,1720464,1721523,109,f,NA,NA,NA,NA,NA,sub2
task,mainTask,3,B,380,60,1,1156,1,i,p,s,90,1723450,1724606,122,f,NA,NA,NA,NA,NA,sub2
task,mainTask,3,B,381,61,1,1209,3,i,m,s,77,1726545,1727754,109,f,NA,NA,NA,NA,NA,sub2
task,mainTask,3,B,382,62,1,878,1,i,p,s,90,1729643,1730521,122,f,NA,NA,NA,NA,NA,sub2
task,mainTask,3,B,383,63,1,1350,7,c,m,s,90,1732553,1733903,122,s,4,1,NA,NA,NA,sub2
task,mainTask,3,B,384,64,1,1012,4,c,p,s,77,1735931,1736943,109,s,4,2,NA,NA,NA,sub2
task,mainTask,3,B,385,65,1,952,6,i,p,r,77,1739032,1739984,109,s,4,3,NA,NA,NA,sub2
task,mainTask,3,B,386,66,1,928,8,i,p,r,77,1742269,1743197,109,s,4,4,NA,NA,NA,sub2
task,mainTask,3,B,387,67,0,NA,6,i,m,s,NA,1745261,NA,122,f,NA,NA,NA,NA,NA,sub2
task,mainTask,3,B,388,68,1,884,1,i,p,s,90,1748601,1749485,122,f,NA,NA,NA,NA,NA,sub2
task,mainTask,3,B,389,69,1,1200,3,i,m,s,77,1751313,1752513,109,f,NA,NA,NA,NA,NA,sub2
task,mainTask,3,B,390,70,1,1067,6,i,p,s,77,1754525,1755592,109,f,NA,NA,NA,NA,NA,sub2
task,mainTask,3,B,391,71,0,1038,1,i,m,s,90,1757544,1758582,109,f,NA,NA,NA,NA,NA,sub2
task,mainTask,3,B,392,72,1,930,8,i,p,s,77,1760513,1761443,109,f,NA,NA,NA,NA,NA,sub2
task,mainTask,3,B,393,73,1,822,2,c,p,r,77,1763393,1764215,109,s,2,1,NA,NA,NA,sub2
task,mainTask,3,B,394,74,1,855,4,c,p,r,77,1766169,1767024,109,s,2,2,NA,NA,NA,sub2
task,mainTask,3,B,395,75,1,1093,3,i,m,s,77,1768928,1770021,109,s,2,3,NA,NA,NA,sub2
task,mainTask,3,B,396,76,1,1085,1,i,p,s,90,1772088,1773173,122,s,2,4,NA,NA,NA,sub2
task,mainTask,3,B,397,77,1,1012,4,c,p,r,77,1775130,1776142,109,f,NA,NA,NA,NA,NA,sub2
task,mainTask,3,B,398,78,1,1279,8,i,m,s,90,1778105,1779384,122,f,NA,NA,NA,NA,NA,sub2
task,mainTask,3,B,399,79,1,1120,6,i,p,s,77,1781400,1782520,109,f,NA,NA,NA,NA,NA,sub2
task,mainTask,3,B,400,80,1,1308,1,i,m,s,77,1784593,1785901,109,f,NA,NA,NA,NA,NA,sub2
task,mainTask,3,B,401,81,1,1177,3,i,p,s,90,1787913,1789090,122,f,NA,NA,NA,NA,NA,sub2
task,mainTask,3,B,402,82,1,1211,8,i,m,s,90,1791144,1792355,122,f,NA,NA,NA,NA,NA,sub2
task,mainTask,3,B,403,83,1,1506,6,i,m,r,90,1794314,1795820,122,s,3,1,NA,NA,NA,sub2
task,mainTask,3,B,404,84,1,1086,2,c,p,s,77,1797689,1798775,109,s,3,2,NA,NA,NA,sub2
task,mainTask,3,B,405,85,1,1064,3,i,p,r,90,1800784,1801848,122,s,3,3,NA,NA,NA,sub2
task,mainTask,3,B,406,86,1,1242,2,c,m,s,77,1803792,1805034,109,s,3,4,NA,NA,NA,sub2
task,mainTask,3,B,407,87,1,1287,9,c,m,r,90,1807008,1808295,122,f,NA,NA,NA,NA,NA,sub2
task,mainTask,3,B,408,88,1,946,1,i,p,s,90,1810328,1811274,122,f,NA,NA,NA,NA,NA,sub2
task,mainTask,3,B,409,89,0,1008,3,i,m,s,90,1813344,1814352,109,f,NA,NA,NA,NA,NA,sub2
task,mainTask,3,B,410,90,1,1086,6,i,p,s,77,1816376,1817462,109,f,NA,NA,NA,NA,NA,sub2
task,mainTask,3,B,411,91,1,1133,8,i,m,s,90,1819295,1820428,122,f,NA,NA,NA,NA,NA,sub2
task,mainTask,3,B,412,92,1,1436,6,i,p,s,77,1822416,1823852,109,f,NA,NA,NA,NA,NA,sub2
task,mainTask,3,B,413,93,1,1418,7,c,p,r,90,1825642,1827060,122,s,2,1,NA,NA,NA,sub2
task,mainTask,3,B,414,94,1,1391,9,c,p,r,90,1829104,1830495,122,s,2,2,NA,NA,NA,sub2
task,mainTask,3,B,415,95,1,1273,6,i,m,s,90,1832520,1833793,122,s,2,3,NA,NA,NA,sub2
task,mainTask,3,B,416,96,1,882,1,i,p,s,90,1835731,1836613,122,s,2,4,NA,NA,NA,sub2
task,mainTask,3,B,417,97,1,906,7,c,p,r,90,1838528,1839434,122,f,NA,NA,NA,NA,NA,sub2
task,mainTask,3,B,418,98,1,1226,3,i,m,s,77,1841424,1842650,109,f,NA,NA,NA,NA,NA,sub2
task,mainTask,3,B,419,99,0,1048,8,i,p,s,90,1844616,1845664,109,f,NA,NA,NA,NA,NA,sub2
task,mainTask,3,B,420,100,1,1017,3,i,m,s,77,1847728,1848745,109,f,NA,NA,NA,NA,NA,sub2
task,mainTask,3,B,421,101,1,959,1,i,p,s,90,1850683,1851642,122,f,NA,NA,NA,NA,NA,sub2
task,mainTask,3,B,422,102,1,1123,3,i,m,s,77,1853560,1854683,109,f,NA,NA,NA,NA,NA,sub2
task,mainTask,3,B,423,103,1,1256,2,c,p,s,77,1856608,1857864,109,s,4,1,NA,NA,NA,sub2
task,mainTask,3,B,424,104,1,971,4,c,m,s,77,1859939,1860910,109,s,4,2,NA,NA,NA,sub2
task,mainTask,3,B,425,105,1,1206,8,i,m,r,90,1862768,1863974,122,s,4,3,NA,NA,NA,sub2
task,mainTask,3,B,426,106,1,1323,6,i,m,r,90,1865960,1867283,122,s,4,4,NA,NA,NA,sub2
task,mainTask,3,B,427,107,0,1315,3,i,p,s,77,1869265,1870580,122,f,NA,NA,NA,NA,NA,sub2
task,mainTask,3,B,428,108,1,1274,6,i,m,s,90,1872640,1873914,122,f,NA,NA,NA,NA,NA,sub2
task,mainTask,3,B,429,109,1,932,3,i,p,s,90,1875880,1876812,122,f,NA,NA,NA,NA,NA,sub2
task,mainTask,3,B,430,110,0,NA,1,i,m,s,NA,1878888,NA,109,f,NA,NA,NA,NA,NA,sub2
task,mainTask,3,B,431,111,1,1233,6,i,p,s,77,1882161,1883394,109,f,NA,NA,NA,NA,NA,sub2
task,mainTask,3,B,432,112,1,1176,3,i,m,s,77,1885296,1886472,109,f,NA,NA,NA,NA,NA,sub2
task,mainTask,3,B,433,113,1,1026,7,c,m,r,90,1888567,1889593,122,s,2,1,NA,NA,NA,sub2
task,mainTask,3,B,434,114,1,1278,4,c,m,r,77,1891537,1892815,109,s,2,2,NA,NA,NA,sub2
task,mainTask,3,B,435,115,1,1435,8,i,p,s,77,1894759,1896194,109,s,2,3,NA,NA,NA,sub2
task,mainTask,3,B,436,116,1,1429,6,i,m,s,90,1898183,1899612,122,s,2,4,NA,NA,NA,sub2
task,mainTask,3,B,437,117,1,1187,2,c,m,r,77,1901408,1902595,109,f,NA,NA,NA,NA,NA,sub2
task,mainTask,3,B,438,118,1,1069,6,i,p,s,77,1904663,1905732,109,f,NA,NA,NA,NA,NA,sub2
task,mainTask,3,B,439,119,1,1480,1,i,m,s,77,1907672,1909152,109,f,NA,NA,NA,NA,NA,sub2
task,mainTask,3,B,440,120,1,1238,3,i,p,s,90,1910976,1912214,122,f,NA,NA,NA,NA,NA,sub2
task,mainTask,3,B,441,121,1,1373,6,i,m,s,90,1914184,1915557,122,f,NA,NA,NA,NA,NA,sub2
task,mainTask,3,B,442,122,1,1475,3,i,p,s,90,1917407,1918882,122,f,NA,NA,NA,NA,NA,sub2
task,mainTask,3,B,443,123,1,1431,2,c,p,r,77,1920680,1922111,109,s,2,1,NA,NA,NA,sub2
task,mainTask,3,B,444,124,1,1642,9,c,p,r,90,1923911,1925553,122,s,2,2,NA,NA,NA,sub2
task,mainTask,3,B,445,125,1,1090,3,i,m,s,77,1927531,1928621,109,s,2,3,NA,NA,NA,sub2
task,mainTask,3,B,446,126,1,1345,6,i,p,s,77,1930719,1932064,109,s,2,4,NA,NA,NA,sub2
task,mainTask,3,B,447,127,1,1023,4,c,p,r,77,1933983,1935006,109,f,NA,NA,NA,NA,NA,sub2
task,mainTask,3,B,448,128,1,1090,3,i,m,s,77,1936934,1938024,109,f,NA,NA,NA,NA,NA,sub2
